"Subject_ID","Participant","Date","Time","Duration","Screen_Resolution","Screen_Size","Screen_Refresh","Browser","Browser_Version","Device","Device_OS","Illusion_Type","Block","Block_Order","Trial","Stimulus","Illusion_Strength","Illusion_Direction","Illusion_Side","Illusion_Difference","Illusion_Difference_Category","Illusion_Strength_Category","Answer","Error","ISI","RT"
"sub-110","qh07hl","22/12/2022","10:45:07",26.7722666666667,"1366x600",0.8196,60.56,"chrome","108.0.0","Desktop","Windows 10","Ebbinghaus",1,1,19,"Ebbinghaus_-0.1000_-0.2800",-0.1,"Congruent","-1",0.28,"Hard","Mild","arrowright",0,1344,515
"sub-110","qh07hl","22/12/2022","10:45:07",26.7722666666667,"1366x600",0.8196,60.56,"chrome","108.0.0","Desktop","Windows 10","Ebbinghaus",1,1,20,"Ebbinghaus_0.35714_-0.2150",0.35714,"Incongruent","-1",0.215,"Hard","Mild","arrowright",0,1450,457
"sub-110","qh07hl","22/12/2022","10:45:07",26.7722666666667,"1366x600",0.8196,60.56,"chrome","108.0.0","Desktop","Windows 10","Ebbinghaus",1,1,21,"Ebbinghaus_-0.1000_-0.15857",-0.1,"Congruent","-1",0.15857,"Easy","Mild","arrowright",0,1246,403
"sub-110","qh07hl","22/12/2022","10:45:07",26.7722666666667,"1366x600",0.8196,60.56,"chrome","108.0.0","Desktop","Windows 10","Ebbinghaus",1,1,22,"Ebbinghaus_-0.61429_0.28000",-0.61429,"Congruent","1",0.28,"Hard","Mild","arrowleft",0,1433,396
"sub-110","qh07hl","22/12/2022","10:45:07",26.7722666666667,"1366x600",0.8196,60.56,"chrome","108.0.0","Desktop","Windows 10","Ebbinghaus",1,1,23,"Ebbinghaus_0.87143_0.28000",0.87143,"Incongruent","1",0.28,"Hard","Mild","arrowright",1,1072,510
"sub-110","qh07hl","22/12/2022","10:45:07",26.7722666666667,"1366x600",0.8196,60.56,"chrome","108.0.0","Desktop","Windows 10","Ebbinghaus",1,1,24,"Ebbinghaus_0.61429_-0.11071",0.61429,"Incongruent","-1",0.11071,"Easy","Mild","arrowright",0,1425,427
"sub-110","qh07hl","22/12/2022","10:45:07",26.7722666666667,"1366x600",0.8196,60.56,"chrome","108.0.0","Desktop","Windows 10","Ebbinghaus",1,1,25,"Ebbinghaus_0.61429_-0.2150",0.61429,"Incongruent","-1",0.215,"Hard","Mild","arrowright",0,1232,423
"sub-110","qh07hl","22/12/2022","10:45:07",26.7722666666667,"1366x600",0.8196,60.56,"chrome","108.0.0","Desktop","Windows 10","Ebbinghaus",1,1,26,"Ebbinghaus_-0.87143_0.11071",-0.87143,"Congruent","1",0.11071,"Easy","Mild","arrowleft",0,1430,516
"sub-110","qh07hl","22/12/2022","10:45:07",26.7722666666667,"1366x600",0.8196,60.56,"chrome","108.0.0","Desktop","Windows 10","Ebbinghaus",1,1,27,"Ebbinghaus_-0.87143_0.28000",-0.87143,"Congruent","1",0.28,"Hard","Mild","arrowleft",0,1057,360
"sub-110","qh07hl","22/12/2022","10:45:07",26.7722666666667,"1366x600",0.8196,60.56,"chrome","108.0.0","Desktop","Windows 10","Ebbinghaus",1,1,28,"Ebbinghaus_-0.61429_-0.2150",-0.61429,"Congruent","-1",0.215,"Hard","Mild","arrowright",0,1229,462
"sub-110","qh07hl","22/12/2022","10:45:07",26.7722666666667,"1366x600",0.8196,60.56,"chrome","108.0.0","Desktop","Windows 10","Ebbinghaus",1,1,29,"Ebbinghaus_0.61429_0.21500",0.61429,"Incongruent","1",0.215,"Hard","Mild","arrowleft",0,1365,445
"sub-110","qh07hl","22/12/2022","10:45:07",26.7722666666667,"1366x600",0.8196,60.56,"chrome","108.0.0","Desktop","Windows 10","Ebbinghaus",1,1,30,"Ebbinghaus_0.10000_0.28000",0.1,"Incongruent","1",0.28,"Hard","Mild","arrowleft",0,1037,413
"sub-110","qh07hl","22/12/2022","10:45:07",26.7722666666667,"1366x600",0.8196,60.56,"chrome","108.0.0","Desktop","Windows 10","Ebbinghaus",1,1,31,"Ebbinghaus_0.35714_0.15857",0.35714,"Incongruent","1",0.15857,"Easy","Mild","arrowleft",0,1113,403
"sub-110","qh07hl","22/12/2022","10:45:07",26.7722666666667,"1366x600",0.8196,60.56,"chrome","108.0.0","Desktop","Windows 10","Ebbinghaus",1,1,32,"Ebbinghaus_-0.1000_0.15857",-0.1,"Congruent","1",0.15857,"Easy","Mild","arrowleft",0,1451,437
"sub-110","qh07hl","22/12/2022","10:45:07",26.7722666666667,"1366x600",0.8196,60.56,"chrome","108.0.0","Desktop","Windows 10","Ebbinghaus",1,1,33,"Ebbinghaus_-0.35714_0.11071",-0.35714,"Congruent","1",0.11071,"Easy","Mild","arrowleft",0,1437,440
"sub-110","qh07hl","22/12/2022","10:45:07",26.7722666666667,"1366x600",0.8196,60.56,"chrome","108.0.0","Desktop","Windows 10","Ebbinghaus",1,1,34,"Ebbinghaus_-0.1000_0.21500",-0.1,"Congruent","1",0.215,"Hard","Mild","arrowleft",0,1155,401
"sub-110","qh07hl","22/12/2022","10:45:07",26.7722666666667,"1366x600",0.8196,60.56,"chrome","108.0.0","Desktop","Windows 10","Ebbinghaus",1,1,35,"Ebbinghaus_-0.35714_-0.15857",-0.35714,"Congruent","-1",0.15857,"Easy","Mild","arrowright",0,1074,485
"sub-110","qh07hl","22/12/2022","10:45:07",26.7722666666667,"1366x600",0.8196,60.56,"chrome","108.0.0","Desktop","Windows 10","Ebbinghaus",1,1,36,"Ebbinghaus_-0.87143_-0.2800",-0.87143,"Congruent","-1",0.28,"Hard","Mild","arrowright",0,1177,419
"sub-110","qh07hl","22/12/2022","10:45:07",26.7722666666667,"1366x600",0.8196,60.56,"chrome","108.0.0","Desktop","Windows 10","Ebbinghaus",1,1,37,"Ebbinghaus_0.87143_-0.15857",0.87143,"Incongruent","-1",0.15857,"Easy","Mild","arrowright",0,1266,389
"sub-110","qh07hl","22/12/2022","10:45:07",26.7722666666667,"1366x600",0.8196,60.56,"chrome","108.0.0","Desktop","Windows 10","Ebbinghaus",1,1,38,"Ebbinghaus_-0.1000_-0.2150",-0.1,"Congruent","-1",0.215,"Hard","Mild","arrowright",0,1428,417
"sub-110","qh07hl","22/12/2022","10:45:07",26.7722666666667,"1366x600",0.8196,60.56,"chrome","108.0.0","Desktop","Windows 10","Ebbinghaus",1,1,39,"Ebbinghaus_0.35714_-0.2800",0.35714,"Incongruent","-1",0.28,"Hard","Mild","arrowright",0,1169,439
"sub-110","qh07hl","22/12/2022","10:45:07",26.7722666666667,"1366x600",0.8196,60.56,"chrome","108.0.0","Desktop","Windows 10","Ebbinghaus",1,1,40,"Ebbinghaus_-0.35714_-0.11071",-0.35714,"Congruent","-1",0.11071,"Easy","Mild","arrowright",0,1264,386
"sub-110","qh07hl","22/12/2022","10:45:07",26.7722666666667,"1366x600",0.8196,60.56,"chrome","108.0.0","Desktop","Windows 10","Ebbinghaus",1,1,41,"Ebbinghaus_0.61429_0.15857",0.61429,"Incongruent","1",0.15857,"Easy","Mild","arrowleft",0,1468,467
"sub-110","qh07hl","22/12/2022","10:45:07",26.7722666666667,"1366x600",0.8196,60.56,"chrome","108.0.0","Desktop","Windows 10","Ebbinghaus",1,1,42,"Ebbinghaus_0.35714_-0.15857",0.35714,"Incongruent","-1",0.15857,"Easy","Mild","arrowright",0,1319,515
"sub-110","qh07hl","22/12/2022","10:45:07",26.7722666666667,"1366x600",0.8196,60.56,"chrome","108.0.0","Desktop","Windows 10","Ebbinghaus",1,1,43,"Ebbinghaus_-0.35714_0.28000",-0.35714,"Congruent","1",0.28,"Hard","Mild","arrowleft",0,1153,409
"sub-110","qh07hl","22/12/2022","10:45:07",26.7722666666667,"1366x600",0.8196,60.56,"chrome","108.0.0","Desktop","Windows 10","Ebbinghaus",1,1,44,"Ebbinghaus_0.10000_-0.2150",0.1,"Incongruent","-1",0.215,"Hard","Mild","arrowright",0,1355,485
"sub-110","qh07hl","22/12/2022","10:45:07",26.7722666666667,"1366x600",0.8196,60.56,"chrome","108.0.0","Desktop","Windows 10","Ebbinghaus",1,1,45,"Ebbinghaus_0.87143_0.21500",0.87143,"Incongruent","1",0.215,"Hard","Mild","arrowleft",0,1178,410
"sub-110","qh07hl","22/12/2022","10:45:07",26.7722666666667,"1366x600",0.8196,60.56,"chrome","108.0.0","Desktop","Windows 10","Ebbinghaus",1,1,46,"Ebbinghaus_-0.1000_0.28000",-0.1,"Congruent","1",0.28,"Hard","Mild","arrowleft",0,1456,436
"sub-110","qh07hl","22/12/2022","10:45:07",26.7722666666667,"1366x600",0.8196,60.56,"chrome","108.0.0","Desktop","Windows 10","Ebbinghaus",1,1,47,"Ebbinghaus_0.10000_0.15857",0.1,"Incongruent","1",0.15857,"Easy","Mild","arrowleft",0,1278,406
"sub-110","qh07hl","22/12/2022","10:45:07",26.7722666666667,"1366x600",0.8196,60.56,"chrome","108.0.0","Desktop","Windows 10","Ebbinghaus",1,1,48,"Ebbinghaus_0.10000_-0.11071",0.1,"Incongruent","-1",0.11071,"Easy","Mild","arrowright",0,1225,664
"sub-110","qh07hl","22/12/2022","10:45:07",26.7722666666667,"1366x600",0.8196,60.56,"chrome","108.0.0","Desktop","Windows 10","Ebbinghaus",1,1,49,"Ebbinghaus_0.87143_-0.11071",0.87143,"Incongruent","-1",0.11071,"Easy","Mild","arrowright",0,1003,375
"sub-110","qh07hl","22/12/2022","10:45:07",26.7722666666667,"1366x600",0.8196,60.56,"chrome","108.0.0","Desktop","Windows 10","Ebbinghaus",1,1,50,"Ebbinghaus_-0.35714_-0.2800",-0.35714,"Congruent","-1",0.28,"Hard","Mild","arrowright",0,1434,414
"sub-110","qh07hl","22/12/2022","10:45:07",26.7722666666667,"1366x600",0.8196,60.56,"chrome","108.0.0","Desktop","Windows 10","Ebbinghaus",1,1,51,"Ebbinghaus_0.10000_-0.2800",0.1,"Incongruent","-1",0.28,"Hard","Mild","arrowright",0,1359,457
"sub-110","qh07hl","22/12/2022","10:45:07",26.7722666666667,"1366x600",0.8196,60.56,"chrome","108.0.0","Desktop","Windows 10","Ebbinghaus",1,1,52,"Ebbinghaus_-0.87143_-0.2150",-0.87143,"Congruent","-1",0.215,"Hard","Mild","arrowright",0,1023,475
"sub-110","qh07hl","22/12/2022","10:45:07",26.7722666666667,"1366x600",0.8196,60.56,"chrome","108.0.0","Desktop","Windows 10","Ebbinghaus",1,1,53,"Ebbinghaus_-0.35714_0.15857",-0.35714,"Congruent","1",0.15857,"Easy","Mild","arrowleft",0,1189,540
"sub-110","qh07hl","22/12/2022","10:45:07",26.7722666666667,"1366x600",0.8196,60.56,"chrome","108.0.0","Desktop","Windows 10","Ebbinghaus",1,1,54,"Ebbinghaus_0.35714_0.21500",0.35714,"Incongruent","1",0.215,"Hard","Mild","arrowleft",0,1174,406
"sub-110","qh07hl","22/12/2022","10:45:07",26.7722666666667,"1366x600",0.8196,60.56,"chrome","108.0.0","Desktop","Windows 10","Ebbinghaus",1,1,55,"Ebbinghaus_-0.61429_0.21500",-0.61429,"Congruent","1",0.215,"Hard","Mild","arrowleft",0,1098,401
"sub-110","qh07hl","22/12/2022","10:45:07",26.7722666666667,"1366x600",0.8196,60.56,"chrome","108.0.0","Desktop","Windows 10","Ebbinghaus",1,1,56,"Ebbinghaus_0.87143_0.11071",0.87143,"Incongruent","1",0.11071,"Easy","Mild","arrowright",1,1220,518
"sub-110","qh07hl","22/12/2022","10:45:07",26.7722666666667,"1366x600",0.8196,60.56,"chrome","108.0.0","Desktop","Windows 10","Ebbinghaus",1,1,57,"Ebbinghaus_-0.61429_-0.2800",-0.61429,"Congruent","-1",0.28,"Hard","Mild","arrowright",0,1371,400
"sub-110","qh07hl","22/12/2022","10:45:07",26.7722666666667,"1366x600",0.8196,60.56,"chrome","108.0.0","Desktop","Windows 10","Ebbinghaus",1,1,58,"Ebbinghaus_0.87143_-0.2800",0.87143,"Incongruent","-1",0.28,"Hard","Mild","arrowright",0,1321,410
"sub-110","qh07hl","22/12/2022","10:45:07",26.7722666666667,"1366x600",0.8196,60.56,"chrome","108.0.0","Desktop","Windows 10","Ebbinghaus",1,1,59,"Ebbinghaus_0.35714_0.11071",0.35714,"Incongruent","1",0.11071,"Easy","Mild","arrowright",1,1045,419
"sub-110","qh07hl","22/12/2022","10:45:07",26.7722666666667,"1366x600",0.8196,60.56,"chrome","108.0.0","Desktop","Windows 10","Ebbinghaus",1,1,60,"Ebbinghaus_0.10000_-0.15857",0.1,"Incongruent","-1",0.15857,"Easy","Mild","arrowright",0,1055,481
"sub-110","qh07hl","22/12/2022","10:45:07",26.7722666666667,"1366x600",0.8196,60.56,"chrome","108.0.0","Desktop","Windows 10","Ebbinghaus",1,1,61,"Ebbinghaus_-0.61429_0.15857",-0.61429,"Congruent","1",0.15857,"Easy","Mild","arrowleft",0,1016,490
"sub-110","qh07hl","22/12/2022","10:45:07",26.7722666666667,"1366x600",0.8196,60.56,"chrome","108.0.0","Desktop","Windows 10","Ebbinghaus",1,1,62,"Ebbinghaus_-0.61429_0.11071",-0.61429,"Congruent","1",0.11071,"Easy","Mild","arrowleft",0,1037,413
"sub-110","qh07hl","22/12/2022","10:45:07",26.7722666666667,"1366x600",0.8196,60.56,"chrome","108.0.0","Desktop","Windows 10","Ebbinghaus",1,1,63,"Ebbinghaus_-0.35714_0.21500",-0.35714,"Congruent","1",0.215,"Hard","Mild","arrowleft",0,1091,358
"sub-110","qh07hl","22/12/2022","10:45:07",26.7722666666667,"1366x600",0.8196,60.56,"chrome","108.0.0","Desktop","Windows 10","Ebbinghaus",1,1,64,"Ebbinghaus_0.87143_0.15857",0.87143,"Incongruent","1",0.15857,"Easy","Mild","arrowleft",0,1222,338
"sub-110","qh07hl","22/12/2022","10:45:07",26.7722666666667,"1366x600",0.8196,60.56,"chrome","108.0.0","Desktop","Windows 10","Ebbinghaus",1,1,65,"Ebbinghaus_-0.35714_-0.2150",-0.35714,"Congruent","-1",0.215,"Hard","Mild","arrowright",0,1132,418
"sub-110","qh07hl","22/12/2022","10:45:07",26.7722666666667,"1366x600",0.8196,60.56,"chrome","108.0.0","Desktop","Windows 10","Ebbinghaus",1,1,66,"Ebbinghaus_-0.87143_0.21500",-0.87143,"Congruent","1",0.215,"Hard","Mild","arrowleft",0,1018,407
"sub-110","qh07hl","22/12/2022","10:45:07",26.7722666666667,"1366x600",0.8196,60.56,"chrome","108.0.0","Desktop","Windows 10","Ebbinghaus",1,1,67,"Ebbinghaus_0.61429_0.11071",0.61429,"Incongruent","1",0.11071,"Easy","Mild","arrowright",1,1007,470
"sub-110","qh07hl","22/12/2022","10:45:07",26.7722666666667,"1366x600",0.8196,60.56,"chrome","108.0.0","Desktop","Windows 10","Ebbinghaus",1,1,68,"Ebbinghaus_0.35714_0.28000",0.35714,"Incongruent","1",0.28,"Hard","Mild","arrowleft",0,1229,346
"sub-110","qh07hl","22/12/2022","10:45:07",26.7722666666667,"1366x600",0.8196,60.56,"chrome","108.0.0","Desktop","Windows 10","Ebbinghaus",1,1,69,"Ebbinghaus_0.87143_-0.2150",0.87143,"Incongruent","-1",0.215,"Hard","Mild","arrowright",0,1390,388
"sub-110","qh07hl","22/12/2022","10:45:07",26.7722666666667,"1366x600",0.8196,60.56,"chrome","108.0.0","Desktop","Windows 10","Ebbinghaus",1,1,70,"Ebbinghaus_-0.61429_-0.15857",-0.61429,"Congruent","-1",0.15857,"Easy","Mild","arrowleft",1,1180,428
"sub-110","qh07hl","22/12/2022","10:45:07",26.7722666666667,"1366x600",0.8196,60.56,"chrome","108.0.0","Desktop","Windows 10","Ebbinghaus",1,1,71,"Ebbinghaus_0.35714_-0.11071",0.35714,"Incongruent","-1",0.11071,"Easy","Mild","arrowright",0,1089,488
"sub-110","qh07hl","22/12/2022","10:45:07",26.7722666666667,"1366x600",0.8196,60.56,"chrome","108.0.0","Desktop","Windows 10","Ebbinghaus",1,1,72,"Ebbinghaus_0.61429_0.28000",0.61429,"Incongruent","1",0.28,"Hard","Mild","arrowleft",0,1076,371
"sub-110","qh07hl","22/12/2022","10:45:07",26.7722666666667,"1366x600",0.8196,60.56,"chrome","108.0.0","Desktop","Windows 10","Ebbinghaus",1,1,73,"Ebbinghaus_0.61429_-0.15857",0.61429,"Incongruent","-1",0.15857,"Easy","Mild","arrowright",0,1409,369
"sub-110","qh07hl","22/12/2022","10:45:07",26.7722666666667,"1366x600",0.8196,60.56,"chrome","108.0.0","Desktop","Windows 10","Ebbinghaus",1,1,74,"Ebbinghaus_0.61429_-0.2800",0.61429,"Incongruent","-1",0.28,"Hard","Mild","arrowright",0,1003,419
"sub-110","qh07hl","22/12/2022","10:45:07",26.7722666666667,"1366x600",0.8196,60.56,"chrome","108.0.0","Desktop","Windows 10","Ebbinghaus",1,1,75,"Ebbinghaus_-0.1000_0.11071",-0.1,"Congruent","1",0.11071,"Easy","Mild","arrowleft",0,1334,420
"sub-110","qh07hl","22/12/2022","10:45:07",26.7722666666667,"1366x600",0.8196,60.56,"chrome","108.0.0","Desktop","Windows 10","Ebbinghaus",1,1,76,"Ebbinghaus_-0.61429_-0.11071",-0.61429,"Congruent","-1",0.11071,"Easy","Mild","arrowright",0,1057,465
"sub-110","qh07hl","22/12/2022","10:45:07",26.7722666666667,"1366x600",0.8196,60.56,"chrome","108.0.0","Desktop","Windows 10","Ebbinghaus",1,1,77,"Ebbinghaus_0.10000_0.11071",0.1,"Incongruent","1",0.11071,"Easy","Mild","arrowright",1,1210,404
"sub-110","qh07hl","22/12/2022","10:45:07",26.7722666666667,"1366x600",0.8196,60.56,"chrome","108.0.0","Desktop","Windows 10","Ebbinghaus",1,1,78,"Ebbinghaus_0.10000_0.21500",0.1,"Incongruent","1",0.215,"Hard","Mild","arrowleft",0,1206,377
"sub-110","qh07hl","22/12/2022","10:45:07",26.7722666666667,"1366x600",0.8196,60.56,"chrome","108.0.0","Desktop","Windows 10","Ebbinghaus",1,1,79,"Ebbinghaus_-0.87143_-0.15857",-0.87143,"Congruent","-1",0.15857,"Easy","Mild","arrowright",0,1159,441
"sub-110","qh07hl","22/12/2022","10:45:07",26.7722666666667,"1366x600",0.8196,60.56,"chrome","108.0.0","Desktop","Windows 10","Ebbinghaus",1,1,80,"Ebbinghaus_-0.87143_0.15857",-0.87143,"Congruent","1",0.15857,"Easy","Mild","arrowleft",0,1496,458
"sub-110","qh07hl","22/12/2022","10:45:07",26.7722666666667,"1366x600",0.8196,60.56,"chrome","108.0.0","Desktop","Windows 10","Ebbinghaus",1,1,81,"Ebbinghaus_-0.1000_-0.11071",-0.1,"Congruent","-1",0.11071,"Easy","Mild","arrowright",0,1325,392
"sub-110","qh07hl","22/12/2022","10:45:07",26.7722666666667,"1366x600",0.8196,60.56,"chrome","108.0.0","Desktop","Windows 10","Ebbinghaus",1,1,82,"Ebbinghaus_-0.87143_-0.11071",-0.87143,"Congruent","-1",0.11071,"Easy","Mild","arrowright",0,1455,390
"sub-110","qh07hl","22/12/2022","10:45:07",26.7722666666667,"1366x600",0.8196,60.56,"chrome","108.0.0","Desktop","Windows 10","Vertical-Horizontal",2,2,1,"VerticalHorizontal_28.75714_-0.16217",28.75714,"Incongruent","-1",0.16217,"Easy","Strong","arrowleft",1,1064,400
"sub-110","qh07hl","22/12/2022","10:45:07",26.7722666666667,"1366x600",0.8196,60.56,"chrome","108.0.0","Desktop","Windows 10","Vertical-Horizontal",2,2,2,"VerticalHorizontal_-11.78571_-0.0673",-11.78571,"Congruent","-1",0.0673,"Easy","Strong","arrowright",0,1151,551
"sub-110","qh07hl","22/12/2022","10:45:07",26.7722666666667,"1366x600",0.8196,60.56,"chrome","108.0.0","Desktop","Windows 10","Vertical-Horizontal",2,2,3,"VerticalHorizontal_-3.3000_-0.2250",-3.3,"Congruent","-1",0.225,"Hard","Mild","arrowright",0,1169,390
"sub-110","qh07hl","22/12/2022","10:45:07",26.7722666666667,"1366x600",0.8196,60.56,"chrome","108.0.0","Desktop","Windows 10","Vertical-Horizontal",2,2,4,"VerticalHorizontal_-28.75714_0.16217",-28.75714,"Congruent","1",0.16217,"Easy","Strong","arrowleft",0,1318,326
"sub-110","qh07hl","22/12/2022","10:45:07",26.7722666666667,"1366x600",0.8196,60.56,"chrome","108.0.0","Desktop","Windows 10","Vertical-Horizontal",2,2,5,"VerticalHorizontal_20.27143_0.22500",20.27143,"Incongruent","1",0.225,"Hard","Strong","arrowleft",0,1266,400
"sub-110","qh07hl","22/12/2022","10:45:07",26.7722666666667,"1366x600",0.8196,60.56,"chrome","108.0.0","Desktop","Windows 10","Vertical-Horizontal",2,2,6,"VerticalHorizontal_-20.27143_-0.16217",-20.27143,"Congruent","-1",0.16217,"Easy","Strong","arrowright",0,1176,389
"sub-110","qh07hl","22/12/2022","10:45:07",26.7722666666667,"1366x600",0.8196,60.56,"chrome","108.0.0","Desktop","Windows 10","Vertical-Horizontal",2,2,7,"VerticalHorizontal_3.30000_-0.16217",3.3,"Incongruent","-1",0.16217,"Easy","Mild","arrowright",0,1320,415
"sub-110","qh07hl","22/12/2022","10:45:07",26.7722666666667,"1366x600",0.8196,60.56,"chrome","108.0.0","Desktop","Windows 10","Vertical-Horizontal",2,2,8,"VerticalHorizontal_-11.78571_0.22500",-11.78571,"Congruent","1",0.225,"Hard","Strong","arrowleft",0,1025,367
"sub-110","qh07hl","22/12/2022","10:45:07",26.7722666666667,"1366x600",0.8196,60.56,"chrome","108.0.0","Desktop","Windows 10","Vertical-Horizontal",2,2,9,"VerticalHorizontal_20.27143_-0.1096",20.27143,"Incongruent","-1",0.1096,"Easy","Strong","arrowleft",1,1380,326
"sub-110","qh07hl","22/12/2022","10:45:07",26.7722666666667,"1366x600",0.8196,60.56,"chrome","108.0.0","Desktop","Windows 10","Vertical-Horizontal",2,2,10,"VerticalHorizontal_-11.78571_0.06730",-11.78571,"Congruent","1",0.0673,"Easy","Strong","arrowleft",0,1103,427
"sub-110","qh07hl","22/12/2022","10:45:07",26.7722666666667,"1366x600",0.8196,60.56,"chrome","108.0.0","Desktop","Windows 10","Vertical-Horizontal",2,2,11,"VerticalHorizontal_3.30000_-0.0673",3.3,"Incongruent","-1",0.0673,"Easy","Mild","arrowright",0,1477,397
"sub-110","qh07hl","22/12/2022","10:45:07",26.7722666666667,"1366x600",0.8196,60.56,"chrome","108.0.0","Desktop","Windows 10","Vertical-Horizontal",2,2,12,"VerticalHorizontal_11.78571_0.16217",11.78571,"Incongruent","1",0.16217,"Easy","Strong","arrowleft",0,1080,492
"sub-110","qh07hl","22/12/2022","10:45:07",26.7722666666667,"1366x600",0.8196,60.56,"chrome","108.0.0","Desktop","Windows 10","Vertical-Horizontal",2,2,13,"VerticalHorizontal_28.75714_-0.1096",28.75714,"Incongruent","-1",0.1096,"Easy","Strong","arrowleft",1,1028,376
"sub-110","qh07hl","22/12/2022","10:45:07",26.7722666666667,"1366x600",0.8196,60.56,"chrome","108.0.0","Desktop","Windows 10","Vertical-Horizontal",2,2,14,"VerticalHorizontal_-3.3000_-0.0673",-3.3,"Congruent","-1",0.0673,"Easy","Mild","arrowright",0,1229,394
"sub-110","qh07hl","22/12/2022","10:45:07",26.7722666666667,"1366x600",0.8196,60.56,"chrome","108.0.0","Desktop","Windows 10","Vertical-Horizontal",2,2,15,"VerticalHorizontal_11.78571_-0.1096",11.78571,"Incongruent","-1",0.1096,"Easy","Strong","arrowleft",1,1033,379
"sub-110","qh07hl","22/12/2022","10:45:07",26.7722666666667,"1366x600",0.8196,60.56,"chrome","108.0.0","Desktop","Windows 10","Vertical-Horizontal",2,2,16,"VerticalHorizontal_11.78571_-0.0673",11.78571,"Incongruent","-1",0.0673,"Easy","Strong","arrowleft",1,1335,402
"sub-110","qh07hl","22/12/2022","10:45:07",26.7722666666667,"1366x600",0.8196,60.56,"chrome","108.0.0","Desktop","Windows 10","Vertical-Horizontal",2,2,17,"VerticalHorizontal_28.75714_0.22500",28.75714,"Incongruent","1",0.225,"Hard","Strong","arrowright",1,1380,388
"sub-110","qh07hl","22/12/2022","10:45:07",26.7722666666667,"1366x600",0.8196,60.56,"chrome","108.0.0","Desktop","Windows 10","Vertical-Horizontal",2,2,18,"VerticalHorizontal_28.75714_0.06730",28.75714,"Incongruent","1",0.0673,"Easy","Strong","arrowright",1,1264,368
"sub-110","qh07hl","22/12/2022","10:45:07",26.7722666666667,"1366x600",0.8196,60.56,"chrome","108.0.0","Desktop","Windows 10","Vertical-Horizontal",2,2,19,"VerticalHorizontal_-20.27143_0.22500",-20.27143,"Congruent","1",0.225,"Hard","Strong","arrowleft",0,1430,332
"sub-110","qh07hl","22/12/2022","10:45:07",26.7722666666667,"1366x600",0.8196,60.56,"chrome","108.0.0","Desktop","Windows 10","Vertical-Horizontal",2,2,20,"VerticalHorizontal_3.30000_0.22500",3.3,"Incongruent","1",0.225,"Hard","Mild","arrowleft",0,1341,377
"sub-110","qh07hl","22/12/2022","10:45:07",26.7722666666667,"1366x600",0.8196,60.56,"chrome","108.0.0","Desktop","Windows 10","Vertical-Horizontal",2,2,21,"VerticalHorizontal_20.27143_0.10960",20.27143,"Incongruent","1",0.1096,"Easy","Strong","arrowright",1,1121,463
"sub-110","qh07hl","22/12/2022","10:45:07",26.7722666666667,"1366x600",0.8196,60.56,"chrome","108.0.0","Desktop","Windows 10","Vertical-Horizontal",2,2,22,"VerticalHorizontal_-20.27143_0.06730",-20.27143,"Congruent","1",0.0673,"Easy","Strong","arrowleft",0,1195,364
"sub-110","qh07hl","22/12/2022","10:45:07",26.7722666666667,"1366x600",0.8196,60.56,"chrome","108.0.0","Desktop","Windows 10","Vertical-Horizontal",2,2,23,"VerticalHorizontal_-20.27143_-0.2250",-20.27143,"Congruent","-1",0.225,"Hard","Strong","arrowright",0,1297,389
"sub-110","qh07hl","22/12/2022","10:45:07",26.7722666666667,"1366x600",0.8196,60.56,"chrome","108.0.0","Desktop","Windows 10","Vertical-Horizontal",2,2,24,"VerticalHorizontal_20.27143_-0.0673",20.27143,"Incongruent","-1",0.0673,"Easy","Strong","arrowleft",1,1251,358
"sub-110","qh07hl","22/12/2022","10:45:07",26.7722666666667,"1366x600",0.8196,60.56,"chrome","108.0.0","Desktop","Windows 10","Vertical-Horizontal",2,2,25,"VerticalHorizontal_-3.3000_0.06730",-3.3,"Congruent","1",0.0673,"Easy","Mild","arrowleft",0,1473,444
"sub-110","qh07hl","22/12/2022","10:45:07",26.7722666666667,"1366x600",0.8196,60.56,"chrome","108.0.0","Desktop","Windows 10","Vertical-Horizontal",2,2,26,"VerticalHorizontal_3.30000_0.16217",3.3,"Incongruent","1",0.16217,"Easy","Mild","arrowleft",0,1235,392
"sub-110","qh07hl","22/12/2022","10:45:07",26.7722666666667,"1366x600",0.8196,60.56,"chrome","108.0.0","Desktop","Windows 10","Vertical-Horizontal",2,2,27,"VerticalHorizontal_-28.75714_0.10960",-28.75714,"Congruent","1",0.1096,"Easy","Strong","arrowleft",0,1484,317
"sub-110","qh07hl","22/12/2022","10:45:07",26.7722666666667,"1366x600",0.8196,60.56,"chrome","108.0.0","Desktop","Windows 10","Vertical-Horizontal",2,2,28,"VerticalHorizontal_-28.75714_-0.1096",-28.75714,"Congruent","-1",0.1096,"Easy","Strong","arrowright",0,1231,365
"sub-110","qh07hl","22/12/2022","10:45:07",26.7722666666667,"1366x600",0.8196,60.56,"chrome","108.0.0","Desktop","Windows 10","Vertical-Horizontal",2,2,29,"VerticalHorizontal_-11.78571_0.16217",-11.78571,"Congruent","1",0.16217,"Easy","Strong","arrowleft",0,1188,324
"sub-110","qh07hl","22/12/2022","10:45:07",26.7722666666667,"1366x600",0.8196,60.56,"chrome","108.0.0","Desktop","Windows 10","Vertical-Horizontal",2,2,30,"VerticalHorizontal_-28.75714_-0.0673",-28.75714,"Congruent","-1",0.0673,"Easy","Strong","arrowright",0,1297,348
"sub-110","qh07hl","22/12/2022","10:45:07",26.7722666666667,"1366x600",0.8196,60.56,"chrome","108.0.0","Desktop","Windows 10","Vertical-Horizontal",2,2,31,"VerticalHorizontal_28.75714_0.16217",28.75714,"Incongruent","1",0.16217,"Easy","Strong","arrowright",1,1371,371
"sub-110","qh07hl","22/12/2022","10:45:07",26.7722666666667,"1366x600",0.8196,60.56,"chrome","108.0.0","Desktop","Windows 10","Vertical-Horizontal",2,2,32,"VerticalHorizontal_-28.75714_0.06730",-28.75714,"Congruent","1",0.0673,"Easy","Strong","arrowleft",0,1469,306
"sub-110","qh07hl","22/12/2022","10:45:07",26.7722666666667,"1366x600",0.8196,60.56,"chrome","108.0.0","Desktop","Windows 10","Vertical-Horizontal",2,2,33,"VerticalHorizontal_20.27143_-0.16217",20.27143,"Incongruent","-1",0.16217,"Easy","Strong","arrowleft",1,1156,383
"sub-110","qh07hl","22/12/2022","10:45:07",26.7722666666667,"1366x600",0.8196,60.56,"chrome","108.0.0","Desktop","Windows 10","Vertical-Horizontal",2,2,34,"VerticalHorizontal_-11.78571_-0.1096",-11.78571,"Congruent","-1",0.1096,"Easy","Strong","arrowright",0,1017,538
"sub-110","qh07hl","22/12/2022","10:45:07",26.7722666666667,"1366x600",0.8196,60.56,"chrome","108.0.0","Desktop","Windows 10","Vertical-Horizontal",2,2,35,"VerticalHorizontal_3.30000_-0.2250",3.3,"Incongruent","-1",0.225,"Hard","Mild","arrowright",0,1020,415
"sub-110","qh07hl","22/12/2022","10:45:07",26.7722666666667,"1366x600",0.8196,60.56,"chrome","108.0.0","Desktop","Windows 10","Vertical-Horizontal",2,2,36,"VerticalHorizontal_20.27143_-0.2250",20.27143,"Incongruent","-1",0.225,"Hard","Strong","arrowright",0,1267,535
"sub-110","qh07hl","22/12/2022","10:45:07",26.7722666666667,"1366x600",0.8196,60.56,"chrome","108.0.0","Desktop","Windows 10","Vertical-Horizontal",2,2,37,"VerticalHorizontal_-20.27143_0.10960",-20.27143,"Congruent","1",0.1096,"Easy","Strong","arrowleft",0,1222,416
"sub-110","qh07hl","22/12/2022","10:45:07",26.7722666666667,"1366x600",0.8196,60.56,"chrome","108.0.0","Desktop","Windows 10","Vertical-Horizontal",2,2,38,"VerticalHorizontal_-20.27143_0.16217",-20.27143,"Congruent","1",0.16217,"Easy","Strong","arrowleft",0,1200,380
"sub-110","qh07hl","22/12/2022","10:45:07",26.7722666666667,"1366x600",0.8196,60.56,"chrome","108.0.0","Desktop","Windows 10","Vertical-Horizontal",2,2,39,"VerticalHorizontal_-20.27143_-0.1096",-20.27143,"Congruent","-1",0.1096,"Easy","Strong","arrowright",0,1335,384
"sub-110","qh07hl","22/12/2022","10:45:07",26.7722666666667,"1366x600",0.8196,60.56,"chrome","108.0.0","Desktop","Windows 10","Vertical-Horizontal",2,2,40,"VerticalHorizontal_-3.3000_0.10960",-3.3,"Congruent","1",0.1096,"Easy","Mild","arrowleft",0,1145,380
"sub-110","qh07hl","22/12/2022","10:45:07",26.7722666666667,"1366x600",0.8196,60.56,"chrome","108.0.0","Desktop","Windows 10","Vertical-Horizontal",2,2,41,"VerticalHorizontal_-11.78571_0.10960",-11.78571,"Congruent","1",0.1096,"Easy","Strong","arrowleft",0,1068,370
"sub-110","qh07hl","22/12/2022","10:45:07",26.7722666666667,"1366x600",0.8196,60.56,"chrome","108.0.0","Desktop","Windows 10","Vertical-Horizontal",2,2,42,"VerticalHorizontal_-3.3000_0.22500",-3.3,"Congruent","1",0.225,"Hard","Mild","arrowleft",0,1238,409
"sub-110","qh07hl","22/12/2022","10:45:07",26.7722666666667,"1366x600",0.8196,60.56,"chrome","108.0.0","Desktop","Windows 10","Vertical-Horizontal",2,2,43,"VerticalHorizontal_-28.75714_-0.2250",-28.75714,"Congruent","-1",0.225,"Hard","Strong","arrowright",0,1203,358
"sub-110","qh07hl","22/12/2022","10:45:07",26.7722666666667,"1366x600",0.8196,60.56,"chrome","108.0.0","Desktop","Windows 10","Vertical-Horizontal",2,2,44,"VerticalHorizontal_3.30000_0.06730",3.3,"Incongruent","1",0.0673,"Easy","Mild","arrowleft",0,1234,527
"sub-110","qh07hl","22/12/2022","10:45:07",26.7722666666667,"1366x600",0.8196,60.56,"chrome","108.0.0","Desktop","Windows 10","Vertical-Horizontal",2,2,45,"VerticalHorizontal_-28.75714_0.22500",-28.75714,"Congruent","1",0.225,"Hard","Strong","arrowleft",0,1181,326
"sub-110","qh07hl","22/12/2022","10:45:07",26.7722666666667,"1366x600",0.8196,60.56,"chrome","108.0.0","Desktop","Windows 10","Vertical-Horizontal",2,2,46,"VerticalHorizontal_3.30000_-0.1096",3.3,"Incongruent","-1",0.1096,"Easy","Mild","arrowright",0,1212,452
"sub-110","qh07hl","22/12/2022","10:45:07",26.7722666666667,"1366x600",0.8196,60.56,"chrome","108.0.0","Desktop","Windows 10","Vertical-Horizontal",2,2,47,"VerticalHorizontal_-28.75714_-0.16217",-28.75714,"Congruent","-1",0.16217,"Easy","Strong","arrowright",0,1267,342
"sub-110","qh07hl","22/12/2022","10:45:07",26.7722666666667,"1366x600",0.8196,60.56,"chrome","108.0.0","Desktop","Windows 10","Vertical-Horizontal",2,2,48,"VerticalHorizontal_3.30000_0.10960",3.3,"Incongruent","1",0.1096,"Easy","Mild","arrowleft",0,1461,491
"sub-110","qh07hl","22/12/2022","10:45:07",26.7722666666667,"1366x600",0.8196,60.56,"chrome","108.0.0","Desktop","Windows 10","Vertical-Horizontal",2,2,49,"VerticalHorizontal_-3.3000_-0.1096",-3.3,"Congruent","-1",0.1096,"Easy","Mild","arrowright",0,1391,400
"sub-110","qh07hl","22/12/2022","10:45:07",26.7722666666667,"1366x600",0.8196,60.56,"chrome","108.0.0","Desktop","Windows 10","Vertical-Horizontal",2,2,50,"VerticalHorizontal_11.78571_-0.2250",11.78571,"Incongruent","-1",0.225,"Hard","Strong","arrowright",0,1442,498
"sub-110","qh07hl","22/12/2022","10:45:07",26.7722666666667,"1366x600",0.8196,60.56,"chrome","108.0.0","Desktop","Windows 10","Vertical-Horizontal",2,2,51,"VerticalHorizontal_-11.78571_-0.16217",-11.78571,"Congruent","-1",0.16217,"Easy","Strong","arrowright",0,1112,406
"sub-110","qh07hl","22/12/2022","10:45:07",26.7722666666667,"1366x600",0.8196,60.56,"chrome","108.0.0","Desktop","Windows 10","Vertical-Horizontal",2,2,52,"VerticalHorizontal_28.75714_-0.2250",28.75714,"Incongruent","-1",0.225,"Hard","Strong","arrowleft",1,1442,433
"sub-110","qh07hl","22/12/2022","10:45:07",26.7722666666667,"1366x600",0.8196,60.56,"chrome","108.0.0","Desktop","Windows 10","Vertical-Horizontal",2,2,53,"VerticalHorizontal_-11.78571_-0.2250",-11.78571,"Congruent","-1",0.225,"Hard","Strong","arrowright",0,1123,402
"sub-110","qh07hl","22/12/2022","10:45:07",26.7722666666667,"1366x600",0.8196,60.56,"chrome","108.0.0","Desktop","Windows 10","Vertical-Horizontal",2,2,54,"VerticalHorizontal_11.78571_0.22500",11.78571,"Incongruent","1",0.225,"Hard","Strong","arrowleft",0,1127,441
"sub-110","qh07hl","22/12/2022","10:45:07",26.7722666666667,"1366x600",0.8196,60.56,"chrome","108.0.0","Desktop","Windows 10","Vertical-Horizontal",2,2,55,"VerticalHorizontal_28.75714_-0.0673",28.75714,"Incongruent","-1",0.0673,"Easy","Strong","arrowleft",1,1046,468
"sub-110","qh07hl","22/12/2022","10:45:07",26.7722666666667,"1366x600",0.8196,60.56,"chrome","108.0.0","Desktop","Windows 10","Vertical-Horizontal",2,2,56,"VerticalHorizontal_11.78571_0.06730",11.78571,"Incongruent","1",0.0673,"Easy","Strong","arrowright",1,1067,434
"sub-110","qh07hl","22/12/2022","10:45:07",26.7722666666667,"1366x600",0.8196,60.56,"chrome","108.0.0","Desktop","Windows 10","Vertical-Horizontal",2,2,57,"VerticalHorizontal_11.78571_-0.16217",11.78571,"Incongruent","-1",0.16217,"Easy","Strong","arrowright",0,1249,452
"sub-110","qh07hl","22/12/2022","10:45:07",26.7722666666667,"1366x600",0.8196,60.56,"chrome","108.0.0","Desktop","Windows 10","Vertical-Horizontal",2,2,58,"VerticalHorizontal_20.27143_0.06730",20.27143,"Incongruent","1",0.0673,"Easy","Strong","arrowright",1,1219,502
"sub-110","qh07hl","22/12/2022","10:45:07",26.7722666666667,"1366x600",0.8196,60.56,"chrome","108.0.0","Desktop","Windows 10","Vertical-Horizontal",2,2,59,"VerticalHorizontal_-20.27143_-0.0673",-20.27143,"Congruent","-1",0.0673,"Easy","Strong","arrowright",0,1014,480
"sub-110","qh07hl","22/12/2022","10:45:07",26.7722666666667,"1366x600",0.8196,60.56,"chrome","108.0.0","Desktop","Windows 10","Vertical-Horizontal",2,2,60,"VerticalHorizontal_-3.3000_0.16217",-3.3,"Congruent","1",0.16217,"Easy","Mild","arrowleft",0,1213,413
"sub-110","qh07hl","22/12/2022","10:45:07",26.7722666666667,"1366x600",0.8196,60.56,"chrome","108.0.0","Desktop","Windows 10","Vertical-Horizontal",2,2,61,"VerticalHorizontal_28.75714_0.10960",28.75714,"Incongruent","1",0.1096,"Easy","Strong","arrowright",1,1289,399
"sub-110","qh07hl","22/12/2022","10:45:07",26.7722666666667,"1366x600",0.8196,60.56,"chrome","108.0.0","Desktop","Windows 10","Vertical-Horizontal",2,2,62,"VerticalHorizontal_-3.3000_-0.16217",-3.3,"Congruent","-1",0.16217,"Easy","Mild","arrowright",0,1101,425
"sub-110","qh07hl","22/12/2022","10:45:07",26.7722666666667,"1366x600",0.8196,60.56,"chrome","108.0.0","Desktop","Windows 10","Vertical-Horizontal",2,2,63,"VerticalHorizontal_20.27143_0.16217",20.27143,"Incongruent","1",0.16217,"Easy","Strong","arrowleft",0,1164,455
"sub-110","qh07hl","22/12/2022","10:45:07",26.7722666666667,"1366x600",0.8196,60.56,"chrome","108.0.0","Desktop","Windows 10","Vertical-Horizontal",2,2,64,"VerticalHorizontal_11.78571_0.10960",11.78571,"Incongruent","1",0.1096,"Easy","Strong","arrowright",1,1107,512
"sub-110","qh07hl","22/12/2022","10:45:07",26.7722666666667,"1366x600",0.8196,60.56,"chrome","108.0.0","Desktop","Windows 10","Müller-Lyer",3,3,1,"MullerLyer_-20.04286_-0.3500",-20.04286,"Congruent","-1",0.35,"Hard","Strong","arrowdown",0,1154,431
"sub-110","qh07hl","22/12/2022","10:45:07",26.7722666666667,"1366x600",0.8196,60.56,"chrome","108.0.0","Desktop","Windows 10","Müller-Lyer",3,3,2,"MullerLyer_14.12857_0.35000",14.12857,"Incongruent","1",0.35,"Hard","Strong","arrowup",0,1383,412
"sub-110","qh07hl","22/12/2022","10:45:07",26.7722666666667,"1366x600",0.8196,60.56,"chrome","108.0.0","Desktop","Windows 10","Müller-Lyer",3,3,3,"MullerLyer_14.12857_0.14541",14.12857,"Incongruent","1",0.14541,"Easy","Strong","arrowup",0,1230,420
"sub-110","qh07hl","22/12/2022","10:45:07",26.7722666666667,"1366x600",0.8196,60.56,"chrome","108.0.0","Desktop","Windows 10","Müller-Lyer",3,3,4,"MullerLyer_-2.3000_0.14541",-2.3,"Congruent","1",0.14541,"Easy","Mild","arrowup",0,1476,413
"sub-110","qh07hl","22/12/2022","10:45:07",26.7722666666667,"1366x600",0.8196,60.56,"chrome","108.0.0","Desktop","Windows 10","Müller-Lyer",3,3,5,"MullerLyer_-14.12857_-0.3500",-14.12857,"Congruent","-1",0.35,"Hard","Strong","arrowdown",0,1065,394
"sub-110","qh07hl","22/12/2022","10:45:07",26.7722666666667,"1366x600",0.8196,60.56,"chrome","108.0.0","Desktop","Windows 10","Müller-Lyer",3,3,6,"MullerLyer_-2.3000_-0.07627",-2.3,"Congruent","-1",0.07627,"Easy","Mild","arrowdown",0,1301,520
"sub-110","qh07hl","22/12/2022","10:45:07",26.7722666666667,"1366x600",0.8196,60.56,"chrome","108.0.0","Desktop","Windows 10","Müller-Lyer",3,3,7,"MullerLyer_8.21429_0.07627",8.21429,"Incongruent","1",0.07627,"Easy","Mild","arrowup",0,1197,640
"sub-110","qh07hl","22/12/2022","10:45:07",26.7722666666667,"1366x600",0.8196,60.56,"chrome","108.0.0","Desktop","Windows 10","Müller-Lyer",3,3,8,"MullerLyer_-8.21429_-0.3500",-8.21429,"Congruent","-1",0.35,"Hard","Mild","arrowdown",0,1038,445
"sub-110","qh07hl","22/12/2022","10:45:07",26.7722666666667,"1366x600",0.8196,60.56,"chrome","108.0.0","Desktop","Windows 10","Müller-Lyer",3,3,9,"MullerLyer_-14.12857_-0.14541",-14.12857,"Congruent","-1",0.14541,"Easy","Strong","arrowdown",0,1287,434
"sub-110","qh07hl","22/12/2022","10:45:07",26.7722666666667,"1366x600",0.8196,60.56,"chrome","108.0.0","Desktop","Windows 10","Müller-Lyer",3,3,10,"MullerLyer_-20.04286_0.35000",-20.04286,"Congruent","1",0.35,"Hard","Strong","arrowup",0,1393,385
"sub-110","qh07hl","22/12/2022","10:45:07",26.7722666666667,"1366x600",0.8196,60.56,"chrome","108.0.0","Desktop","Windows 10","Müller-Lyer",3,3,11,"MullerLyer_20.04286_-0.3500",20.04286,"Incongruent","-1",0.35,"Hard","Strong","arrowup",1,1190,361
"sub-110","qh07hl","22/12/2022","10:45:07",26.7722666666667,"1366x600",0.8196,60.56,"chrome","108.0.0","Desktop","Windows 10","Müller-Lyer",3,3,12,"MullerLyer_20.04286_-0.07627",20.04286,"Incongruent","-1",0.07627,"Easy","Strong","arrowup",1,1112,475
"sub-110","qh07hl","22/12/2022","10:45:07",26.7722666666667,"1366x600",0.8196,60.56,"chrome","108.0.0","Desktop","Windows 10","Müller-Lyer",3,3,13,"MullerLyer_-2.3000_-0.3500",-2.3,"Congruent","-1",0.35,"Hard","Mild","arrowdown",0,1131,437
"sub-110","qh07hl","22/12/2022","10:45:07",26.7722666666667,"1366x600",0.8196,60.56,"chrome","108.0.0","Desktop","Windows 10","Müller-Lyer",3,3,14,"MullerLyer_2.30000_-0.07627",2.3,"Incongruent","-1",0.07627,"Easy","Mild","arrowup",1,1496,460
"sub-110","qh07hl","22/12/2022","10:45:07",26.7722666666667,"1366x600",0.8196,60.56,"chrome","108.0.0","Desktop","Windows 10","Müller-Lyer",3,3,15,"MullerLyer_2.30000_-0.23665",2.3,"Incongruent","-1",0.23665,"Hard","Mild","arrowdown",0,1424,453
"sub-110","qh07hl","22/12/2022","10:45:07",26.7722666666667,"1366x600",0.8196,60.56,"chrome","108.0.0","Desktop","Windows 10","Müller-Lyer",3,3,16,"MullerLyer_-20.04286_0.23665",-20.04286,"Congruent","1",0.23665,"Hard","Strong","arrowup",0,1478,390
"sub-110","qh07hl","22/12/2022","10:45:07",26.7722666666667,"1366x600",0.8196,60.56,"chrome","108.0.0","Desktop","Windows 10","Müller-Lyer",3,3,17,"MullerLyer_20.04286_0.35000",20.04286,"Incongruent","1",0.35,"Hard","Strong","arrowup",0,1108,392
"sub-110","qh07hl","22/12/2022","10:45:07",26.7722666666667,"1366x600",0.8196,60.56,"chrome","108.0.0","Desktop","Windows 10","Müller-Lyer",3,3,18,"MullerLyer_-14.12857_0.07627",-14.12857,"Congruent","1",0.07627,"Easy","Strong","arrowup",0,1114,362
"sub-110","qh07hl","22/12/2022","10:45:07",26.7722666666667,"1366x600",0.8196,60.56,"chrome","108.0.0","Desktop","Windows 10","Müller-Lyer",3,3,19,"MullerLyer_8.21429_-0.07627",8.21429,"Incongruent","-1",0.07627,"Easy","Mild","arrowup",1,1468,426
"sub-110","qh07hl","22/12/2022","10:45:07",26.7722666666667,"1366x600",0.8196,60.56,"chrome","108.0.0","Desktop","Windows 10","Müller-Lyer",3,3,20,"MullerLyer_-8.21429_-0.07627",-8.21429,"Congruent","-1",0.07627,"Easy","Mild","arrowdown",0,1290,487
"sub-110","qh07hl","22/12/2022","10:45:07",26.7722666666667,"1366x600",0.8196,60.56,"chrome","108.0.0","Desktop","Windows 10","Müller-Lyer",3,3,21,"MullerLyer_8.21429_0.14541",8.21429,"Incongruent","1",0.14541,"Easy","Mild","arrowup",0,1105,575
"sub-110","qh07hl","22/12/2022","10:45:07",26.7722666666667,"1366x600",0.8196,60.56,"chrome","108.0.0","Desktop","Windows 10","Müller-Lyer",3,3,22,"MullerLyer_14.12857_0.23665",14.12857,"Incongruent","1",0.23665,"Hard","Strong","arrowup",0,1429,467
"sub-110","qh07hl","22/12/2022","10:45:07",26.7722666666667,"1366x600",0.8196,60.56,"chrome","108.0.0","Desktop","Windows 10","Müller-Lyer",3,3,23,"MullerLyer_-14.12857_-0.07627",-14.12857,"Congruent","-1",0.07627,"Easy","Strong","arrowdown",0,1259,458
"sub-110","qh07hl","22/12/2022","10:45:07",26.7722666666667,"1366x600",0.8196,60.56,"chrome","108.0.0","Desktop","Windows 10","Müller-Lyer",3,3,24,"MullerLyer_-14.12857_0.14541",-14.12857,"Congruent","1",0.14541,"Easy","Strong","arrowup",0,1500,401
"sub-110","qh07hl","22/12/2022","10:45:07",26.7722666666667,"1366x600",0.8196,60.56,"chrome","108.0.0","Desktop","Windows 10","Müller-Lyer",3,3,25,"MullerLyer_-2.3000_0.07627",-2.3,"Congruent","1",0.07627,"Easy","Mild","arrowdown",1,1158,485
"sub-110","qh07hl","22/12/2022","10:45:07",26.7722666666667,"1366x600",0.8196,60.56,"chrome","108.0.0","Desktop","Windows 10","Müller-Lyer",3,3,26,"MullerLyer_14.12857_-0.23665",14.12857,"Incongruent","-1",0.23665,"Hard","Strong","arrowdown",0,1380,530
"sub-110","qh07hl","22/12/2022","10:45:07",26.7722666666667,"1366x600",0.8196,60.56,"chrome","108.0.0","Desktop","Windows 10","Müller-Lyer",3,3,27,"MullerLyer_-20.04286_-0.14541",-20.04286,"Congruent","-1",0.14541,"Easy","Strong","arrowdown",0,1026,497
"sub-110","qh07hl","22/12/2022","10:45:07",26.7722666666667,"1366x600",0.8196,60.56,"chrome","108.0.0","Desktop","Windows 10","Müller-Lyer",3,3,28,"MullerLyer_2.30000_0.23665",2.3,"Incongruent","1",0.23665,"Hard","Mild","arrowup",0,1364,405
"sub-110","qh07hl","22/12/2022","10:45:07",26.7722666666667,"1366x600",0.8196,60.56,"chrome","108.0.0","Desktop","Windows 10","Müller-Lyer",3,3,29,"MullerLyer_-14.12857_-0.23665",-14.12857,"Congruent","-1",0.23665,"Hard","Strong","arrowdown",0,1473,411
"sub-110","qh07hl","22/12/2022","10:45:07",26.7722666666667,"1366x600",0.8196,60.56,"chrome","108.0.0","Desktop","Windows 10","Müller-Lyer",3,3,30,"MullerLyer_2.30000_-0.3500",2.3,"Incongruent","-1",0.35,"Hard","Mild","arrowdown",0,1478,408
"sub-110","qh07hl","22/12/2022","10:45:07",26.7722666666667,"1366x600",0.8196,60.56,"chrome","108.0.0","Desktop","Windows 10","Müller-Lyer",3,3,31,"MullerLyer_8.21429_-0.23665",8.21429,"Incongruent","-1",0.23665,"Hard","Mild","arrowup",1,1210,531
"sub-110","qh07hl","22/12/2022","10:45:07",26.7722666666667,"1366x600",0.8196,60.56,"chrome","108.0.0","Desktop","Windows 10","Müller-Lyer",3,3,32,"MullerLyer_-20.04286_-0.07627",-20.04286,"Congruent","-1",0.07627,"Easy","Strong","arrowdown",0,1130,408
"sub-110","qh07hl","22/12/2022","10:45:07",26.7722666666667,"1366x600",0.8196,60.56,"chrome","108.0.0","Desktop","Windows 10","Müller-Lyer",3,3,33,"MullerLyer_14.12857_-0.14541",14.12857,"Incongruent","-1",0.14541,"Easy","Strong","arrowup",1,1078,495
"sub-110","qh07hl","22/12/2022","10:45:07",26.7722666666667,"1366x600",0.8196,60.56,"chrome","108.0.0","Desktop","Windows 10","Müller-Lyer",3,3,34,"MullerLyer_8.21429_-0.14541",8.21429,"Incongruent","-1",0.14541,"Easy","Mild","arrowup",1,1278,456
"sub-110","qh07hl","22/12/2022","10:45:07",26.7722666666667,"1366x600",0.8196,60.56,"chrome","108.0.0","Desktop","Windows 10","Müller-Lyer",3,3,35,"MullerLyer_-8.21429_0.07627",-8.21429,"Congruent","1",0.07627,"Easy","Mild","arrowup",0,1418,390
"sub-110","qh07hl","22/12/2022","10:45:07",26.7722666666667,"1366x600",0.8196,60.56,"chrome","108.0.0","Desktop","Windows 10","Müller-Lyer",3,3,36,"MullerLyer_-20.04286_-0.23665",-20.04286,"Congruent","-1",0.23665,"Hard","Strong","arrowdown",0,1456,403
"sub-110","qh07hl","22/12/2022","10:45:07",26.7722666666667,"1366x600",0.8196,60.56,"chrome","108.0.0","Desktop","Windows 10","Müller-Lyer",3,3,37,"MullerLyer_-2.3000_-0.14541",-2.3,"Congruent","-1",0.14541,"Easy","Mild","arrowdown",0,1366,560
"sub-110","qh07hl","22/12/2022","10:45:07",26.7722666666667,"1366x600",0.8196,60.56,"chrome","108.0.0","Desktop","Windows 10","Müller-Lyer",3,3,38,"MullerLyer_-8.21429_0.35000",-8.21429,"Congruent","1",0.35,"Hard","Mild","arrowup",0,1393,387
"sub-110","qh07hl","22/12/2022","10:45:07",26.7722666666667,"1366x600",0.8196,60.56,"chrome","108.0.0","Desktop","Windows 10","Müller-Lyer",3,3,39,"MullerLyer_-8.21429_0.23665",-8.21429,"Congruent","1",0.23665,"Hard","Mild","arrowup",0,1330,390
"sub-110","qh07hl","22/12/2022","10:45:07",26.7722666666667,"1366x600",0.8196,60.56,"chrome","108.0.0","Desktop","Windows 10","Müller-Lyer",3,3,40,"MullerLyer_20.04286_0.23665",20.04286,"Incongruent","1",0.23665,"Hard","Strong","arrowup",0,1388,678
"sub-110","qh07hl","22/12/2022","10:45:07",26.7722666666667,"1366x600",0.8196,60.56,"chrome","108.0.0","Desktop","Windows 10","Müller-Lyer",3,3,41,"MullerLyer_14.12857_-0.07627",14.12857,"Incongruent","-1",0.07627,"Easy","Strong","arrowup",1,1045,405
"sub-110","qh07hl","22/12/2022","10:45:07",26.7722666666667,"1366x600",0.8196,60.56,"chrome","108.0.0","Desktop","Windows 10","Müller-Lyer",3,3,42,"MullerLyer_-2.3000_0.23665",-2.3,"Congruent","1",0.23665,"Hard","Mild","arrowup",0,1402,381
"sub-110","qh07hl","22/12/2022","10:45:07",26.7722666666667,"1366x600",0.8196,60.56,"chrome","108.0.0","Desktop","Windows 10","Müller-Lyer",3,3,43,"MullerLyer_14.12857_-0.3500",14.12857,"Incongruent","-1",0.35,"Hard","Strong","arrowdown",0,1255,438
"sub-110","qh07hl","22/12/2022","10:45:07",26.7722666666667,"1366x600",0.8196,60.56,"chrome","108.0.0","Desktop","Windows 10","Müller-Lyer",3,3,44,"MullerLyer_2.30000_0.07627",2.3,"Incongruent","1",0.07627,"Easy","Mild","arrowup",0,1368,437
"sub-110","qh07hl","22/12/2022","10:45:07",26.7722666666667,"1366x600",0.8196,60.56,"chrome","108.0.0","Desktop","Windows 10","Müller-Lyer",3,3,45,"MullerLyer_2.30000_0.35000",2.3,"Incongruent","1",0.35,"Hard","Mild","arrowup",0,1139,484
"sub-110","qh07hl","22/12/2022","10:45:07",26.7722666666667,"1366x600",0.8196,60.56,"chrome","108.0.0","Desktop","Windows 10","Müller-Lyer",3,3,46,"MullerLyer_8.21429_0.35000",8.21429,"Incongruent","1",0.35,"Hard","Mild","arrowup",0,1186,383
"sub-110","qh07hl","22/12/2022","10:45:07",26.7722666666667,"1366x600",0.8196,60.56,"chrome","108.0.0","Desktop","Windows 10","Müller-Lyer",3,3,47,"MullerLyer_-2.3000_0.35000",-2.3,"Congruent","1",0.35,"Hard","Mild","arrowup",0,1171,336
"sub-110","qh07hl","22/12/2022","10:45:07",26.7722666666667,"1366x600",0.8196,60.56,"chrome","108.0.0","Desktop","Windows 10","Müller-Lyer",3,3,48,"MullerLyer_14.12857_0.07627",14.12857,"Incongruent","1",0.07627,"Easy","Strong","arrowdown",1,1328,498
"sub-110","qh07hl","22/12/2022","10:45:07",26.7722666666667,"1366x600",0.8196,60.56,"chrome","108.0.0","Desktop","Windows 10","Müller-Lyer",3,3,49,"MullerLyer_-8.21429_-0.23665",-8.21429,"Congruent","-1",0.23665,"Hard","Mild","arrowdown",0,1412,403
"sub-110","qh07hl","22/12/2022","10:45:07",26.7722666666667,"1366x600",0.8196,60.56,"chrome","108.0.0","Desktop","Windows 10","Müller-Lyer",3,3,50,"MullerLyer_-20.04286_0.14541",-20.04286,"Congruent","1",0.14541,"Easy","Strong","arrowup",0,1436,373
"sub-110","qh07hl","22/12/2022","10:45:07",26.7722666666667,"1366x600",0.8196,60.56,"chrome","108.0.0","Desktop","Windows 10","Müller-Lyer",3,3,51,"MullerLyer_-8.21429_0.14541",-8.21429,"Congruent","1",0.14541,"Easy","Mild","arrowup",0,1120,396
"sub-110","qh07hl","22/12/2022","10:45:07",26.7722666666667,"1366x600",0.8196,60.56,"chrome","108.0.0","Desktop","Windows 10","Müller-Lyer",3,3,52,"MullerLyer_-14.12857_0.23665",-14.12857,"Congruent","1",0.23665,"Hard","Strong","arrowup",0,1431,361
"sub-110","qh07hl","22/12/2022","10:45:07",26.7722666666667,"1366x600",0.8196,60.56,"chrome","108.0.0","Desktop","Windows 10","Müller-Lyer",3,3,53,"MullerLyer_8.21429_0.23665",8.21429,"Incongruent","1",0.23665,"Hard","Mild","arrowup",0,1008,380
"sub-110","qh07hl","22/12/2022","10:45:07",26.7722666666667,"1366x600",0.8196,60.56,"chrome","108.0.0","Desktop","Windows 10","Müller-Lyer",3,3,54,"MullerLyer_20.04286_0.07627",20.04286,"Incongruent","1",0.07627,"Easy","Strong","arrowdown",1,1278,379
"sub-110","qh07hl","22/12/2022","10:45:07",26.7722666666667,"1366x600",0.8196,60.56,"chrome","108.0.0","Desktop","Windows 10","Müller-Lyer",3,3,55,"MullerLyer_-14.12857_0.35000",-14.12857,"Congruent","1",0.35,"Hard","Strong","arrowup",0,1070,332
"sub-110","qh07hl","22/12/2022","10:45:07",26.7722666666667,"1366x600",0.8196,60.56,"chrome","108.0.0","Desktop","Windows 10","Müller-Lyer",3,3,56,"MullerLyer_-8.21429_-0.14541",-8.21429,"Congruent","-1",0.14541,"Easy","Mild","arrowdown",0,1296,397
"sub-110","qh07hl","22/12/2022","10:45:07",26.7722666666667,"1366x600",0.8196,60.56,"chrome","108.0.0","Desktop","Windows 10","Müller-Lyer",3,3,57,"MullerLyer_20.04286_-0.23665",20.04286,"Incongruent","-1",0.23665,"Hard","Strong","arrowup",1,1031,381
"sub-110","qh07hl","22/12/2022","10:45:07",26.7722666666667,"1366x600",0.8196,60.56,"chrome","108.0.0","Desktop","Windows 10","Müller-Lyer",3,3,58,"MullerLyer_2.30000_0.14541",2.3,"Incongruent","1",0.14541,"Easy","Mild","arrowup",0,1363,542
"sub-110","qh07hl","22/12/2022","10:45:07",26.7722666666667,"1366x600",0.8196,60.56,"chrome","108.0.0","Desktop","Windows 10","Müller-Lyer",3,3,59,"MullerLyer_20.04286_-0.14541",20.04286,"Incongruent","-1",0.14541,"Easy","Strong","arrowup",1,1108,408
"sub-110","qh07hl","22/12/2022","10:45:07",26.7722666666667,"1366x600",0.8196,60.56,"chrome","108.0.0","Desktop","Windows 10","Müller-Lyer",3,3,60,"MullerLyer_20.04286_0.14541",20.04286,"Incongruent","1",0.14541,"Easy","Strong","arrowdown",1,1005,554
"sub-110","qh07hl","22/12/2022","10:45:07",26.7722666666667,"1366x600",0.8196,60.56,"chrome","108.0.0","Desktop","Windows 10","Müller-Lyer",3,3,61,"MullerLyer_2.30000_-0.14541",2.3,"Incongruent","-1",0.14541,"Easy","Mild","arrowdown",0,1159,454
"sub-110","qh07hl","22/12/2022","10:45:07",26.7722666666667,"1366x600",0.8196,60.56,"chrome","108.0.0","Desktop","Windows 10","Müller-Lyer",3,3,62,"MullerLyer_-20.04286_0.07627",-20.04286,"Congruent","1",0.07627,"Easy","Strong","arrowup",0,1444,388
"sub-110","qh07hl","22/12/2022","10:45:07",26.7722666666667,"1366x600",0.8196,60.56,"chrome","108.0.0","Desktop","Windows 10","Müller-Lyer",3,3,63,"MullerLyer_-2.3000_-0.23665",-2.3,"Congruent","-1",0.23665,"Hard","Mild","arrowdown",0,1220,408
"sub-110","qh07hl","22/12/2022","10:45:07",26.7722666666667,"1366x600",0.8196,60.56,"chrome","108.0.0","Desktop","Windows 10","Müller-Lyer",3,3,64,"MullerLyer_8.21429_-0.3500",8.21429,"Incongruent","-1",0.35,"Hard","Mild","arrowdown",0,1053,396
"sub-110","qh07hl","22/12/2022","10:45:07",26.7722666666667,"1366x600",0.8196,60.56,"chrome","108.0.0","Desktop","Windows 10","Müller-Lyer",4,4,1,"MullerLyer_5.25714_-0.18826",5.25714,"Incongruent","-1",0.18826,"Hard","Mild","arrowdown",0,1453,490
"sub-110","qh07hl","22/12/2022","10:45:07",26.7722666666667,"1366x600",0.8196,60.56,"chrome","108.0.0","Desktop","Windows 10","Müller-Lyer",4,4,2,"MullerLyer_23.0000_0.29056",23,"Incongruent","1",0.29056,"Hard","Strong","arrowup",0,1484,406
"sub-110","qh07hl","22/12/2022","10:45:07",26.7722666666667,"1366x600",0.8196,60.56,"chrome","108.0.0","Desktop","Windows 10","Müller-Lyer",4,4,3,"MullerLyer_-5.25714_-0.18826",-5.25714,"Congruent","-1",0.18826,"Hard","Mild","arrowdown",0,1498,431
"sub-110","qh07hl","22/12/2022","10:45:07",26.7722666666667,"1366x600",0.8196,60.56,"chrome","108.0.0","Desktop","Windows 10","Müller-Lyer",4,4,4,"MullerLyer_11.17143_0.10808",11.17143,"Incongruent","1",0.10808,"Easy","Strong","arrowup",0,1046,519
"sub-110","qh07hl","22/12/2022","10:45:07",26.7722666666667,"1366x600",0.8196,60.56,"chrome","108.0.0","Desktop","Windows 10","Müller-Lyer",4,4,5,"MullerLyer_-23.000_0.29056",-23,"Congruent","1",0.29056,"Hard","Strong","arrowup",0,1006,452
"sub-110","qh07hl","22/12/2022","10:45:07",26.7722666666667,"1366x600",0.8196,60.56,"chrome","108.0.0","Desktop","Windows 10","Müller-Lyer",4,4,6,"MullerLyer_-5.25714_0.29056",-5.25714,"Congruent","1",0.29056,"Hard","Mild","arrowup",0,1417,411
"sub-110","qh07hl","22/12/2022","10:45:07",26.7722666666667,"1366x600",0.8196,60.56,"chrome","108.0.0","Desktop","Windows 10","Müller-Lyer",4,4,7,"MullerLyer_-5.25714_0.05000",-5.25714,"Congruent","1",0.05,"Easy","Mild","arrowup",0,1424,426
"sub-110","qh07hl","22/12/2022","10:45:07",26.7722666666667,"1366x600",0.8196,60.56,"chrome","108.0.0","Desktop","Windows 10","Müller-Lyer",4,4,8,"MullerLyer_11.17143_0.29056",11.17143,"Incongruent","1",0.29056,"Hard","Strong","arrowup",0,1406,403
"sub-110","qh07hl","22/12/2022","10:45:07",26.7722666666667,"1366x600",0.8196,60.56,"chrome","108.0.0","Desktop","Windows 10","Müller-Lyer",4,4,9,"MullerLyer_5.25714_-0.0500",5.25714,"Incongruent","-1",0.05,"Easy","Mild","arrowdown",0,1321,515
"sub-110","qh07hl","22/12/2022","10:45:07",26.7722666666667,"1366x600",0.8196,60.56,"chrome","108.0.0","Desktop","Windows 10","Müller-Lyer",4,4,10,"MullerLyer_-11.17143_0.18826",-11.17143,"Congruent","1",0.18826,"Hard","Strong","arrowup",0,1476,391
"sub-110","qh07hl","22/12/2022","10:45:07",26.7722666666667,"1366x600",0.8196,60.56,"chrome","108.0.0","Desktop","Windows 10","Müller-Lyer",4,4,11,"MullerLyer_5.25714_-0.29056",5.25714,"Incongruent","-1",0.29056,"Hard","Mild","arrowdown",0,1091,488
"sub-110","qh07hl","22/12/2022","10:45:07",26.7722666666667,"1366x600",0.8196,60.56,"chrome","108.0.0","Desktop","Windows 10","Müller-Lyer",4,4,12,"MullerLyer_17.08571_0.10808",17.08571,"Incongruent","1",0.10808,"Easy","Strong","arrowdown",1,1138,489
"sub-110","qh07hl","22/12/2022","10:45:07",26.7722666666667,"1366x600",0.8196,60.56,"chrome","108.0.0","Desktop","Windows 10","Müller-Lyer",4,4,13,"MullerLyer_23.0000_-0.18826",23,"Incongruent","-1",0.18826,"Hard","Strong","arrowup",1,1394,436
"sub-110","qh07hl","22/12/2022","10:45:07",26.7722666666667,"1366x600",0.8196,60.56,"chrome","108.0.0","Desktop","Windows 10","Müller-Lyer",4,4,14,"MullerLyer_23.0000_0.10808",23,"Incongruent","1",0.10808,"Easy","Strong","arrowdown",1,1136,577
"sub-110","qh07hl","22/12/2022","10:45:07",26.7722666666667,"1366x600",0.8196,60.56,"chrome","108.0.0","Desktop","Windows 10","Müller-Lyer",4,4,15,"MullerLyer_-11.17143_-0.0500",-11.17143,"Congruent","-1",0.05,"Easy","Strong","arrowdown",0,1359,405
"sub-110","qh07hl","22/12/2022","10:45:07",26.7722666666667,"1366x600",0.8196,60.56,"chrome","108.0.0","Desktop","Windows 10","Müller-Lyer",4,4,16,"MullerLyer_23.0000_-0.0500",23,"Incongruent","-1",0.05,"Easy","Strong","arrowup",1,1485,424
"sub-110","qh07hl","22/12/2022","10:45:07",26.7722666666667,"1366x600",0.8196,60.56,"chrome","108.0.0","Desktop","Windows 10","Müller-Lyer",4,4,17,"MullerLyer_-23.000_0.10808",-23,"Congruent","1",0.10808,"Easy","Strong","arrowup",0,1307,361
"sub-110","qh07hl","22/12/2022","10:45:07",26.7722666666667,"1366x600",0.8196,60.56,"chrome","108.0.0","Desktop","Windows 10","Müller-Lyer",4,4,18,"MullerLyer_11.17143_-0.29056",11.17143,"Incongruent","-1",0.29056,"Hard","Strong","arrowdown",0,1414,412
"sub-110","qh07hl","22/12/2022","10:45:07",26.7722666666667,"1366x600",0.8196,60.56,"chrome","108.0.0","Desktop","Windows 10","Müller-Lyer",4,4,19,"MullerLyer_-5.25714_-0.29056",-5.25714,"Congruent","-1",0.29056,"Hard","Mild","arrowdown",0,1422,385
"sub-110","qh07hl","22/12/2022","10:45:07",26.7722666666667,"1366x600",0.8196,60.56,"chrome","108.0.0","Desktop","Windows 10","Müller-Lyer",4,4,20,"MullerLyer_-23.000_0.05000",-23,"Congruent","1",0.05,"Easy","Strong","arrowup",0,1143,389
"sub-110","qh07hl","22/12/2022","10:45:07",26.7722666666667,"1366x600",0.8196,60.56,"chrome","108.0.0","Desktop","Windows 10","Müller-Lyer",4,4,21,"MullerLyer_17.08571_0.29056",17.08571,"Incongruent","1",0.29056,"Hard","Strong","arrowup",0,1471,347
"sub-110","qh07hl","22/12/2022","10:45:07",26.7722666666667,"1366x600",0.8196,60.56,"chrome","108.0.0","Desktop","Windows 10","Müller-Lyer",4,4,22,"MullerLyer_17.08571_-0.29056",17.08571,"Incongruent","-1",0.29056,"Hard","Strong","arrowup",1,1145,356
"sub-110","qh07hl","22/12/2022","10:45:07",26.7722666666667,"1366x600",0.8196,60.56,"chrome","108.0.0","Desktop","Windows 10","Müller-Lyer",4,4,23,"MullerLyer_11.17143_-0.0500",11.17143,"Incongruent","-1",0.05,"Easy","Strong","arrowup",1,1379,480
"sub-110","qh07hl","22/12/2022","10:45:07",26.7722666666667,"1366x600",0.8196,60.56,"chrome","108.0.0","Desktop","Windows 10","Müller-Lyer",4,4,24,"MullerLyer_-23.000_-0.10808",-23,"Congruent","-1",0.10808,"Easy","Strong","arrowdown",0,1406,426
"sub-110","qh07hl","22/12/2022","10:45:07",26.7722666666667,"1366x600",0.8196,60.56,"chrome","108.0.0","Desktop","Windows 10","Müller-Lyer",4,4,25,"MullerLyer_11.17143_0.18826",11.17143,"Incongruent","1",0.18826,"Hard","Strong","arrowup",0,1221,631
"sub-110","qh07hl","22/12/2022","10:45:07",26.7722666666667,"1366x600",0.8196,60.56,"chrome","108.0.0","Desktop","Windows 10","Müller-Lyer",4,4,26,"MullerLyer_23.0000_-0.10808",23,"Incongruent","-1",0.10808,"Easy","Strong","arrowup",1,1164,400
"sub-110","qh07hl","22/12/2022","10:45:07",26.7722666666667,"1366x600",0.8196,60.56,"chrome","108.0.0","Desktop","Windows 10","Müller-Lyer",4,4,27,"MullerLyer_-17.08571_0.18826",-17.08571,"Congruent","1",0.18826,"Hard","Strong","arrowup",0,1168,368
"sub-110","qh07hl","22/12/2022","10:45:07",26.7722666666667,"1366x600",0.8196,60.56,"chrome","108.0.0","Desktop","Windows 10","Müller-Lyer",4,4,28,"MullerLyer_11.17143_-0.18826",11.17143,"Incongruent","-1",0.18826,"Hard","Strong","arrowdown",0,1040,468
"sub-110","qh07hl","22/12/2022","10:45:07",26.7722666666667,"1366x600",0.8196,60.56,"chrome","108.0.0","Desktop","Windows 10","Müller-Lyer",4,4,29,"MullerLyer_-11.17143_-0.29056",-11.17143,"Congruent","-1",0.29056,"Hard","Strong","arrowdown",0,1237,408
"sub-110","qh07hl","22/12/2022","10:45:07",26.7722666666667,"1366x600",0.8196,60.56,"chrome","108.0.0","Desktop","Windows 10","Müller-Lyer",4,4,30,"MullerLyer_17.08571_-0.10808",17.08571,"Incongruent","-1",0.10808,"Easy","Strong","arrowup",1,1064,460
"sub-110","qh07hl","22/12/2022","10:45:07",26.7722666666667,"1366x600",0.8196,60.56,"chrome","108.0.0","Desktop","Windows 10","Müller-Lyer",4,4,31,"MullerLyer_-11.17143_0.29056",-11.17143,"Congruent","1",0.29056,"Hard","Strong","arrowup",0,1300,322
"sub-110","qh07hl","22/12/2022","10:45:07",26.7722666666667,"1366x600",0.8196,60.56,"chrome","108.0.0","Desktop","Windows 10","Müller-Lyer",4,4,32,"MullerLyer_-5.25714_0.18826",-5.25714,"Congruent","1",0.18826,"Hard","Mild","arrowup",0,1110,344
"sub-110","qh07hl","22/12/2022","10:45:07",26.7722666666667,"1366x600",0.8196,60.56,"chrome","108.0.0","Desktop","Windows 10","Müller-Lyer",4,4,33,"MullerLyer_17.08571_0.05000",17.08571,"Incongruent","1",0.05,"Easy","Strong","arrowup",0,1426,317
"sub-110","qh07hl","22/12/2022","10:45:07",26.7722666666667,"1366x600",0.8196,60.56,"chrome","108.0.0","Desktop","Windows 10","Müller-Lyer",4,4,34,"MullerLyer_5.25714_0.10808",5.25714,"Incongruent","1",0.10808,"Easy","Mild","arrowdown",1,1248,484
"sub-110","qh07hl","22/12/2022","10:45:07",26.7722666666667,"1366x600",0.8196,60.56,"chrome","108.0.0","Desktop","Windows 10","Müller-Lyer",4,4,35,"MullerLyer_-23.000_-0.29056",-23,"Congruent","-1",0.29056,"Hard","Strong","arrowdown",0,1485,357
"sub-110","qh07hl","22/12/2022","10:45:07",26.7722666666667,"1366x600",0.8196,60.56,"chrome","108.0.0","Desktop","Windows 10","Müller-Lyer",4,4,36,"MullerLyer_-5.25714_-0.10808",-5.25714,"Congruent","-1",0.10808,"Easy","Mild","arrowdown",0,1010,361
"sub-110","qh07hl","22/12/2022","10:45:07",26.7722666666667,"1366x600",0.8196,60.56,"chrome","108.0.0","Desktop","Windows 10","Müller-Lyer",4,4,37,"MullerLyer_-11.17143_0.10808",-11.17143,"Congruent","1",0.10808,"Easy","Strong","arrowup",0,1295,403
"sub-110","qh07hl","22/12/2022","10:45:07",26.7722666666667,"1366x600",0.8196,60.56,"chrome","108.0.0","Desktop","Windows 10","Müller-Lyer",4,4,38,"MullerLyer_-23.000_-0.18826",-23,"Congruent","-1",0.18826,"Hard","Strong","arrowdown",0,1353,354
"sub-110","qh07hl","22/12/2022","10:45:07",26.7722666666667,"1366x600",0.8196,60.56,"chrome","108.0.0","Desktop","Windows 10","Müller-Lyer",4,4,39,"MullerLyer_17.08571_-0.0500",17.08571,"Incongruent","-1",0.05,"Easy","Strong","arrowup",1,1159,418
"sub-110","qh07hl","22/12/2022","10:45:07",26.7722666666667,"1366x600",0.8196,60.56,"chrome","108.0.0","Desktop","Windows 10","Müller-Lyer",4,4,40,"MullerLyer_23.0000_0.05000",23,"Incongruent","1",0.05,"Easy","Strong","arrowdown",1,1115,388
"sub-110","qh07hl","22/12/2022","10:45:07",26.7722666666667,"1366x600",0.8196,60.56,"chrome","108.0.0","Desktop","Windows 10","Müller-Lyer",4,4,41,"MullerLyer_-5.25714_-0.0500",-5.25714,"Congruent","-1",0.05,"Easy","Mild","arrowup",1,1104,485
"sub-110","qh07hl","22/12/2022","10:45:07",26.7722666666667,"1366x600",0.8196,60.56,"chrome","108.0.0","Desktop","Windows 10","Müller-Lyer",4,4,42,"MullerLyer_-17.08571_-0.29056",-17.08571,"Congruent","-1",0.29056,"Hard","Strong","arrowdown",0,1354,519
"sub-110","qh07hl","22/12/2022","10:45:07",26.7722666666667,"1366x600",0.8196,60.56,"chrome","108.0.0","Desktop","Windows 10","Müller-Lyer",4,4,43,"MullerLyer_-23.000_-0.0500",-23,"Congruent","-1",0.05,"Easy","Strong","arrowdown",0,1014,402
"sub-110","qh07hl","22/12/2022","10:45:07",26.7722666666667,"1366x600",0.8196,60.56,"chrome","108.0.0","Desktop","Windows 10","Müller-Lyer",4,4,44,"MullerLyer_-17.08571_-0.0500",-17.08571,"Congruent","-1",0.05,"Easy","Strong","arrowdown",0,1041,373
"sub-110","qh07hl","22/12/2022","10:45:07",26.7722666666667,"1366x600",0.8196,60.56,"chrome","108.0.0","Desktop","Windows 10","Müller-Lyer",4,4,45,"MullerLyer_-17.08571_0.29056",-17.08571,"Congruent","1",0.29056,"Hard","Strong","arrowup",0,1001,423
"sub-110","qh07hl","22/12/2022","10:45:07",26.7722666666667,"1366x600",0.8196,60.56,"chrome","108.0.0","Desktop","Windows 10","Müller-Lyer",4,4,46,"MullerLyer_-23.000_0.18826",-23,"Congruent","1",0.18826,"Hard","Strong","arrowup",0,1413,420
"sub-110","qh07hl","22/12/2022","10:45:07",26.7722666666667,"1366x600",0.8196,60.56,"chrome","108.0.0","Desktop","Windows 10","Müller-Lyer",4,4,47,"MullerLyer_5.25714_0.05000",5.25714,"Incongruent","1",0.05,"Easy","Mild","arrowdown",1,1306,492
"sub-110","qh07hl","22/12/2022","10:45:07",26.7722666666667,"1366x600",0.8196,60.56,"chrome","108.0.0","Desktop","Windows 10","Müller-Lyer",4,4,48,"MullerLyer_5.25714_0.29056",5.25714,"Incongruent","1",0.29056,"Hard","Mild","arrowup",0,1173,350
"sub-110","qh07hl","22/12/2022","10:45:07",26.7722666666667,"1366x600",0.8196,60.56,"chrome","108.0.0","Desktop","Windows 10","Müller-Lyer",4,4,49,"MullerLyer_-17.08571_-0.18826",-17.08571,"Congruent","-1",0.18826,"Hard","Strong","arrowdown",0,1475,417
"sub-110","qh07hl","22/12/2022","10:45:07",26.7722666666667,"1366x600",0.8196,60.56,"chrome","108.0.0","Desktop","Windows 10","Müller-Lyer",4,4,50,"MullerLyer_17.08571_-0.18826",17.08571,"Incongruent","-1",0.18826,"Hard","Strong","arrowup",1,1349,465
"sub-110","qh07hl","22/12/2022","10:45:07",26.7722666666667,"1366x600",0.8196,60.56,"chrome","108.0.0","Desktop","Windows 10","Müller-Lyer",4,4,51,"MullerLyer_-11.17143_0.05000",-11.17143,"Congruent","1",0.05,"Easy","Strong","arrowup",0,1321,430
"sub-110","qh07hl","22/12/2022","10:45:07",26.7722666666667,"1366x600",0.8196,60.56,"chrome","108.0.0","Desktop","Windows 10","Müller-Lyer",4,4,52,"MullerLyer_5.25714_0.18826",5.25714,"Incongruent","1",0.18826,"Hard","Mild","arrowup",0,1024,513
"sub-110","qh07hl","22/12/2022","10:45:07",26.7722666666667,"1366x600",0.8196,60.56,"chrome","108.0.0","Desktop","Windows 10","Müller-Lyer",4,4,53,"MullerLyer_-17.08571_0.05000",-17.08571,"Congruent","1",0.05,"Easy","Strong","arrowup",0,1493,432
"sub-110","qh07hl","22/12/2022","10:45:07",26.7722666666667,"1366x600",0.8196,60.56,"chrome","108.0.0","Desktop","Windows 10","Müller-Lyer",4,4,54,"MullerLyer_-11.17143_-0.18826",-11.17143,"Congruent","-1",0.18826,"Hard","Strong","arrowdown",0,1398,431
"sub-110","qh07hl","22/12/2022","10:45:07",26.7722666666667,"1366x600",0.8196,60.56,"chrome","108.0.0","Desktop","Windows 10","Müller-Lyer",4,4,55,"MullerLyer_23.0000_-0.29056",23,"Incongruent","-1",0.29056,"Hard","Strong","arrowup",1,1131,433
"sub-110","qh07hl","22/12/2022","10:45:07",26.7722666666667,"1366x600",0.8196,60.56,"chrome","108.0.0","Desktop","Windows 10","Müller-Lyer",4,4,56,"MullerLyer_23.0000_0.18826",23,"Incongruent","1",0.18826,"Hard","Strong","arrowdown",1,1265,544
"sub-110","qh07hl","22/12/2022","10:45:07",26.7722666666667,"1366x600",0.8196,60.56,"chrome","108.0.0","Desktop","Windows 10","Müller-Lyer",4,4,57,"MullerLyer_11.17143_-0.10808",11.17143,"Incongruent","-1",0.10808,"Easy","Strong","arrowup",1,1254,382
"sub-110","qh07hl","22/12/2022","10:45:07",26.7722666666667,"1366x600",0.8196,60.56,"chrome","108.0.0","Desktop","Windows 10","Müller-Lyer",4,4,58,"MullerLyer_5.25714_-0.10808",5.25714,"Incongruent","-1",0.10808,"Easy","Mild","arrowdown",0,1168,506
"sub-110","qh07hl","22/12/2022","10:45:07",26.7722666666667,"1366x600",0.8196,60.56,"chrome","108.0.0","Desktop","Windows 10","Müller-Lyer",4,4,59,"MullerLyer_-5.25714_0.10808",-5.25714,"Congruent","1",0.10808,"Easy","Mild","arrowup",0,1416,476
"sub-110","qh07hl","22/12/2022","10:45:07",26.7722666666667,"1366x600",0.8196,60.56,"chrome","108.0.0","Desktop","Windows 10","Müller-Lyer",4,4,60,"MullerLyer_-17.08571_0.10808",-17.08571,"Congruent","1",0.10808,"Easy","Strong","arrowup",0,1011,380
"sub-110","qh07hl","22/12/2022","10:45:07",26.7722666666667,"1366x600",0.8196,60.56,"chrome","108.0.0","Desktop","Windows 10","Müller-Lyer",4,4,61,"MullerLyer_-17.08571_-0.10808",-17.08571,"Congruent","-1",0.10808,"Easy","Strong","arrowdown",0,1236,383
"sub-110","qh07hl","22/12/2022","10:45:07",26.7722666666667,"1366x600",0.8196,60.56,"chrome","108.0.0","Desktop","Windows 10","Müller-Lyer",4,4,62,"MullerLyer_17.08571_0.18826",17.08571,"Incongruent","1",0.18826,"Hard","Strong","arrowdown",1,1130,457
"sub-110","qh07hl","22/12/2022","10:45:07",26.7722666666667,"1366x600",0.8196,60.56,"chrome","108.0.0","Desktop","Windows 10","Müller-Lyer",4,4,63,"MullerLyer_-11.17143_-0.10808",-11.17143,"Congruent","-1",0.10808,"Easy","Strong","arrowdown",0,1307,410
"sub-110","qh07hl","22/12/2022","10:45:07",26.7722666666667,"1366x600",0.8196,60.56,"chrome","108.0.0","Desktop","Windows 10","Müller-Lyer",4,4,64,"MullerLyer_11.17143_0.05000",11.17143,"Incongruent","1",0.05,"Easy","Strong","arrowdown",1,1055,404
"sub-110","qh07hl","22/12/2022","10:45:07",26.7722666666667,"1366x600",0.8196,60.56,"chrome","108.0.0","Desktop","Windows 10","Vertical-Horizontal",5,5,1,"VerticalHorizontal_7.54286_-0.1346",7.54286,"Incongruent","-1",0.1346,"Easy","Mild","arrowright",0,1198,467
"sub-110","qh07hl","22/12/2022","10:45:07",26.7722666666667,"1366x600",0.8196,60.56,"chrome","108.0.0","Desktop","Windows 10","Vertical-Horizontal",5,5,2,"VerticalHorizontal_-7.54286_0.19230",-7.54286,"Congruent","1",0.1923,"Hard","Mild","arrowleft",0,1310,408
"sub-110","qh07hl","22/12/2022","10:45:07",26.7722666666667,"1366x600",0.8196,60.56,"chrome","108.0.0","Desktop","Windows 10","Vertical-Horizontal",5,5,3,"VerticalHorizontal_7.54286_0.05000",7.54286,"Incongruent","1",0.05,"Easy","Mild","arrowright",1,1372,375
"sub-110","qh07hl","22/12/2022","10:45:07",26.7722666666667,"1366x600",0.8196,60.56,"chrome","108.0.0","Desktop","Windows 10","Vertical-Horizontal",5,5,4,"VerticalHorizontal_24.51429_0.19230",24.51429,"Incongruent","1",0.1923,"Hard","Strong","arrowright",1,1118,369
"sub-110","qh07hl","22/12/2022","10:45:07",26.7722666666667,"1366x600",0.8196,60.56,"chrome","108.0.0","Desktop","Windows 10","Vertical-Horizontal",5,5,5,"VerticalHorizontal_33.0000_-0.08717",33,"Incongruent","-1",0.08717,"Easy","Strong","arrowleft",1,1038,341
"sub-110","qh07hl","22/12/2022","10:45:07",26.7722666666667,"1366x600",0.8196,60.56,"chrome","108.0.0","Desktop","Windows 10","Vertical-Horizontal",5,5,6,"VerticalHorizontal_-7.54286_-0.1346",-7.54286,"Congruent","-1",0.1346,"Easy","Mild","arrowright",0,1040,337
"sub-110","qh07hl","22/12/2022","10:45:07",26.7722666666667,"1366x600",0.8196,60.56,"chrome","108.0.0","Desktop","Windows 10","Vertical-Horizontal",5,5,7,"VerticalHorizontal_-24.51429_0.13460",-24.51429,"Congruent","1",0.1346,"Easy","Strong","arrowleft",0,1407,326
"sub-110","qh07hl","22/12/2022","10:45:07",26.7722666666667,"1366x600",0.8196,60.56,"chrome","108.0.0","Desktop","Windows 10","Vertical-Horizontal",5,5,8,"VerticalHorizontal_-24.51429_0.19230",-24.51429,"Congruent","1",0.1923,"Hard","Strong","arrowleft",0,1208,362
"sub-110","qh07hl","22/12/2022","10:45:07",26.7722666666667,"1366x600",0.8196,60.56,"chrome","108.0.0","Desktop","Windows 10","Vertical-Horizontal",5,5,9,"VerticalHorizontal_-16.02857_-0.1923",-16.02857,"Congruent","-1",0.1923,"Hard","Strong","arrowright",0,1484,346
"sub-110","qh07hl","22/12/2022","10:45:07",26.7722666666667,"1366x600",0.8196,60.56,"chrome","108.0.0","Desktop","Windows 10","Vertical-Horizontal",5,5,10,"VerticalHorizontal_7.54286_0.13460",7.54286,"Incongruent","1",0.1346,"Easy","Mild","arrowleft",0,1143,458
"sub-110","qh07hl","22/12/2022","10:45:07",26.7722666666667,"1366x600",0.8196,60.56,"chrome","108.0.0","Desktop","Windows 10","Vertical-Horizontal",5,5,11,"VerticalHorizontal_-24.51429_-0.0500",-24.51429,"Congruent","-1",0.05,"Easy","Strong","arrowright",0,1253,377
"sub-110","qh07hl","22/12/2022","10:45:07",26.7722666666667,"1366x600",0.8196,60.56,"chrome","108.0.0","Desktop","Windows 10","Vertical-Horizontal",5,5,12,"VerticalHorizontal_33.0000_0.13460",33,"Incongruent","1",0.1346,"Easy","Strong","arrowright",1,1375,329
"sub-110","qh07hl","22/12/2022","10:45:07",26.7722666666667,"1366x600",0.8196,60.56,"chrome","108.0.0","Desktop","Windows 10","Vertical-Horizontal",5,5,13,"VerticalHorizontal_7.54286_-0.08717",7.54286,"Incongruent","-1",0.08717,"Easy","Mild","arrowleft",1,1447,322
"sub-110","qh07hl","22/12/2022","10:45:07",26.7722666666667,"1366x600",0.8196,60.56,"chrome","108.0.0","Desktop","Windows 10","Vertical-Horizontal",5,5,14,"VerticalHorizontal_7.54286_-0.1923",7.54286,"Incongruent","-1",0.1923,"Hard","Mild","arrowright",0,1422,385
"sub-110","qh07hl","22/12/2022","10:45:07",26.7722666666667,"1366x600",0.8196,60.56,"chrome","108.0.0","Desktop","Windows 10","Vertical-Horizontal",5,5,15,"VerticalHorizontal_33.0000_-0.0500",33,"Incongruent","-1",0.05,"Easy","Strong","arrowleft",1,1000,448
"sub-110","qh07hl","22/12/2022","10:45:07",26.7722666666667,"1366x600",0.8196,60.56,"chrome","108.0.0","Desktop","Windows 10","Vertical-Horizontal",5,5,16,"VerticalHorizontal_-16.02857_0.13460",-16.02857,"Congruent","1",0.1346,"Easy","Strong","arrowleft",0,1466,415
"sub-110","qh07hl","22/12/2022","10:45:07",26.7722666666667,"1366x600",0.8196,60.56,"chrome","108.0.0","Desktop","Windows 10","Vertical-Horizontal",5,5,17,"VerticalHorizontal_-24.51429_-0.08717",-24.51429,"Congruent","-1",0.08717,"Easy","Strong","arrowright",0,1333,348
"sub-110","qh07hl","22/12/2022","10:45:07",26.7722666666667,"1366x600",0.8196,60.56,"chrome","108.0.0","Desktop","Windows 10","Vertical-Horizontal",5,5,18,"VerticalHorizontal_-33.000_-0.0500",-33,"Congruent","-1",0.05,"Easy","Strong","arrowright",0,1319,379
"sub-110","qh07hl","22/12/2022","10:45:07",26.7722666666667,"1366x600",0.8196,60.56,"chrome","108.0.0","Desktop","Windows 10","Vertical-Horizontal",5,5,19,"VerticalHorizontal_-33.000_-0.1346",-33,"Congruent","-1",0.1346,"Easy","Strong","arrowright",0,1397,356
"sub-110","qh07hl","22/12/2022","10:45:07",26.7722666666667,"1366x600",0.8196,60.56,"chrome","108.0.0","Desktop","Windows 10","Vertical-Horizontal",5,5,20,"VerticalHorizontal_33.0000_0.05000",33,"Incongruent","1",0.05,"Easy","Strong","arrowright",1,1104,505
"sub-110","qh07hl","22/12/2022","10:45:07",26.7722666666667,"1366x600",0.8196,60.56,"chrome","108.0.0","Desktop","Windows 10","Vertical-Horizontal",5,5,21,"VerticalHorizontal_-33.000_-0.08717",-33,"Congruent","-1",0.08717,"Easy","Strong","arrowright",0,1208,331
"sub-110","qh07hl","22/12/2022","10:45:07",26.7722666666667,"1366x600",0.8196,60.56,"chrome","108.0.0","Desktop","Windows 10","Vertical-Horizontal",5,5,22,"VerticalHorizontal_-7.54286_-0.08717",-7.54286,"Congruent","-1",0.08717,"Easy","Mild","arrowleft",1,1145,423
"sub-110","qh07hl","22/12/2022","10:45:07",26.7722666666667,"1366x600",0.8196,60.56,"chrome","108.0.0","Desktop","Windows 10","Vertical-Horizontal",5,5,23,"VerticalHorizontal_24.51429_0.05000",24.51429,"Incongruent","1",0.05,"Easy","Strong","arrowright",1,1222,367
"sub-110","qh07hl","22/12/2022","10:45:07",26.7722666666667,"1366x600",0.8196,60.56,"chrome","108.0.0","Desktop","Windows 10","Vertical-Horizontal",5,5,24,"VerticalHorizontal_24.51429_-0.1346",24.51429,"Incongruent","-1",0.1346,"Easy","Strong","arrowleft",1,1366,338
"sub-110","qh07hl","22/12/2022","10:45:07",26.7722666666667,"1366x600",0.8196,60.56,"chrome","108.0.0","Desktop","Windows 10","Vertical-Horizontal",5,5,25,"VerticalHorizontal_-16.02857_-0.1346",-16.02857,"Congruent","-1",0.1346,"Easy","Strong","arrowright",0,1412,354
"sub-110","qh07hl","22/12/2022","10:45:07",26.7722666666667,"1366x600",0.8196,60.56,"chrome","108.0.0","Desktop","Windows 10","Vertical-Horizontal",5,5,26,"VerticalHorizontal_-33.000_0.05000",-33,"Congruent","1",0.05,"Easy","Strong","arrowleft",0,1389,314
"sub-110","qh07hl","22/12/2022","10:45:07",26.7722666666667,"1366x600",0.8196,60.56,"chrome","108.0.0","Desktop","Windows 10","Vertical-Horizontal",5,5,27,"VerticalHorizontal_33.0000_0.08717",33,"Incongruent","1",0.08717,"Easy","Strong","arrowright",1,1140,340
"sub-110","qh07hl","22/12/2022","10:45:07",26.7722666666667,"1366x600",0.8196,60.56,"chrome","108.0.0","Desktop","Windows 10","Vertical-Horizontal",5,5,28,"VerticalHorizontal_33.0000_-0.1923",33,"Incongruent","-1",0.1923,"Hard","Strong","arrowleft",1,1203,313
"sub-110","qh07hl","22/12/2022","10:45:07",26.7722666666667,"1366x600",0.8196,60.56,"chrome","108.0.0","Desktop","Windows 10","Vertical-Horizontal",5,5,29,"VerticalHorizontal_-33.000_0.08717",-33,"Congruent","1",0.08717,"Easy","Strong","arrowleft",0,1025,356
"sub-110","qh07hl","22/12/2022","10:45:07",26.7722666666667,"1366x600",0.8196,60.56,"chrome","108.0.0","Desktop","Windows 10","Vertical-Horizontal",5,5,30,"VerticalHorizontal_-16.02857_-0.0500",-16.02857,"Congruent","-1",0.05,"Easy","Strong","arrowright",0,1062,404
"sub-110","qh07hl","22/12/2022","10:45:07",26.7722666666667,"1366x600",0.8196,60.56,"chrome","108.0.0","Desktop","Windows 10","Vertical-Horizontal",5,5,31,"VerticalHorizontal_16.02857_-0.08717",16.02857,"Incongruent","-1",0.08717,"Easy","Strong","arrowleft",1,1173,333
"sub-110","qh07hl","22/12/2022","10:45:07",26.7722666666667,"1366x600",0.8196,60.56,"chrome","108.0.0","Desktop","Windows 10","Vertical-Horizontal",5,5,32,"VerticalHorizontal_7.54286_-0.0500",7.54286,"Incongruent","-1",0.05,"Easy","Mild","arrowright",0,1327,437
"sub-110","qh07hl","22/12/2022","10:45:07",26.7722666666667,"1366x600",0.8196,60.56,"chrome","108.0.0","Desktop","Windows 10","Vertical-Horizontal",5,5,33,"VerticalHorizontal_-24.51429_-0.1346",-24.51429,"Congruent","-1",0.1346,"Easy","Strong","arrowright",0,1323,382
"sub-110","qh07hl","22/12/2022","10:45:07",26.7722666666667,"1366x600",0.8196,60.56,"chrome","108.0.0","Desktop","Windows 10","Vertical-Horizontal",5,5,34,"VerticalHorizontal_16.02857_0.13460",16.02857,"Incongruent","1",0.1346,"Easy","Strong","arrowleft",0,1317,405
"sub-110","qh07hl","22/12/2022","10:45:07",26.7722666666667,"1366x600",0.8196,60.56,"chrome","108.0.0","Desktop","Windows 10","Vertical-Horizontal",5,5,35,"VerticalHorizontal_16.02857_-0.0500",16.02857,"Incongruent","-1",0.05,"Easy","Strong","arrowleft",1,1401,569
"sub-110","qh07hl","22/12/2022","10:45:07",26.7722666666667,"1366x600",0.8196,60.56,"chrome","108.0.0","Desktop","Windows 10","Vertical-Horizontal",5,5,36,"VerticalHorizontal_-16.02857_0.19230",-16.02857,"Congruent","1",0.1923,"Hard","Strong","arrowleft",0,1240,354
"sub-110","qh07hl","22/12/2022","10:45:07",26.7722666666667,"1366x600",0.8196,60.56,"chrome","108.0.0","Desktop","Windows 10","Vertical-Horizontal",5,5,37,"VerticalHorizontal_24.51429_-0.0500",24.51429,"Incongruent","-1",0.05,"Easy","Strong","arrowright",0,1359,558
"sub-110","qh07hl","22/12/2022","10:45:07",26.7722666666667,"1366x600",0.8196,60.56,"chrome","108.0.0","Desktop","Windows 10","Vertical-Horizontal",5,5,38,"VerticalHorizontal_33.0000_0.19230",33,"Incongruent","1",0.1923,"Hard","Strong","arrowright",1,1322,390
"sub-110","qh07hl","22/12/2022","10:45:07",26.7722666666667,"1366x600",0.8196,60.56,"chrome","108.0.0","Desktop","Windows 10","Vertical-Horizontal",5,5,39,"VerticalHorizontal_-24.51429_0.08717",-24.51429,"Congruent","1",0.08717,"Easy","Strong","arrowleft",0,1087,366
"sub-110","qh07hl","22/12/2022","10:45:07",26.7722666666667,"1366x600",0.8196,60.56,"chrome","108.0.0","Desktop","Windows 10","Vertical-Horizontal",5,5,40,"VerticalHorizontal_-24.51429_-0.1923",-24.51429,"Congruent","-1",0.1923,"Hard","Strong","arrowright",0,1322,384
"sub-110","qh07hl","22/12/2022","10:45:07",26.7722666666667,"1366x600",0.8196,60.56,"chrome","108.0.0","Desktop","Windows 10","Vertical-Horizontal",5,5,41,"VerticalHorizontal_-7.54286_-0.0500",-7.54286,"Congruent","-1",0.05,"Easy","Mild","arrowright",0,1247,395
"sub-110","qh07hl","22/12/2022","10:45:07",26.7722666666667,"1366x600",0.8196,60.56,"chrome","108.0.0","Desktop","Windows 10","Vertical-Horizontal",5,5,42,"VerticalHorizontal_-33.000_0.19230",-33,"Congruent","1",0.1923,"Hard","Strong","arrowleft",0,1385,328
"sub-110","qh07hl","22/12/2022","10:45:07",26.7722666666667,"1366x600",0.8196,60.56,"chrome","108.0.0","Desktop","Windows 10","Vertical-Horizontal",5,5,43,"VerticalHorizontal_-33.000_-0.1923",-33,"Congruent","-1",0.1923,"Hard","Strong","arrowright",0,1064,373
"sub-110","qh07hl","22/12/2022","10:45:07",26.7722666666667,"1366x600",0.8196,60.56,"chrome","108.0.0","Desktop","Windows 10","Vertical-Horizontal",5,5,44,"VerticalHorizontal_24.51429_0.13460",24.51429,"Incongruent","1",0.1346,"Easy","Strong","arrowright",1,1137,364
"sub-110","qh07hl","22/12/2022","10:45:07",26.7722666666667,"1366x600",0.8196,60.56,"chrome","108.0.0","Desktop","Windows 10","Vertical-Horizontal",5,5,45,"VerticalHorizontal_24.51429_-0.08717",24.51429,"Incongruent","-1",0.08717,"Easy","Strong","arrowleft",1,1063,356
"sub-110","qh07hl","22/12/2022","10:45:07",26.7722666666667,"1366x600",0.8196,60.56,"chrome","108.0.0","Desktop","Windows 10","Vertical-Horizontal",5,5,46,"VerticalHorizontal_16.02857_0.05000",16.02857,"Incongruent","1",0.05,"Easy","Strong","arrowright",1,1031,411
"sub-110","qh07hl","22/12/2022","10:45:07",26.7722666666667,"1366x600",0.8196,60.56,"chrome","108.0.0","Desktop","Windows 10","Vertical-Horizontal",5,5,47,"VerticalHorizontal_-33.000_0.13460",-33,"Congruent","1",0.1346,"Easy","Strong","arrowleft",0,1333,341
"sub-110","qh07hl","22/12/2022","10:45:07",26.7722666666667,"1366x600",0.8196,60.56,"chrome","108.0.0","Desktop","Windows 10","Vertical-Horizontal",5,5,48,"VerticalHorizontal_16.02857_0.19230",16.02857,"Incongruent","1",0.1923,"Hard","Strong","arrowleft",0,1312,479
"sub-110","qh07hl","22/12/2022","10:45:07",26.7722666666667,"1366x600",0.8196,60.56,"chrome","108.0.0","Desktop","Windows 10","Vertical-Horizontal",5,5,49,"VerticalHorizontal_-16.02857_0.05000",-16.02857,"Congruent","1",0.05,"Easy","Strong","arrowright",1,1110,590
"sub-110","qh07hl","22/12/2022","10:45:07",26.7722666666667,"1366x600",0.8196,60.56,"chrome","108.0.0","Desktop","Windows 10","Vertical-Horizontal",5,5,50,"VerticalHorizontal_-16.02857_0.08717",-16.02857,"Congruent","1",0.08717,"Easy","Strong","arrowleft",0,1108,385
"sub-110","qh07hl","22/12/2022","10:45:07",26.7722666666667,"1366x600",0.8196,60.56,"chrome","108.0.0","Desktop","Windows 10","Vertical-Horizontal",5,5,51,"VerticalHorizontal_-16.02857_-0.08717",-16.02857,"Congruent","-1",0.08717,"Easy","Strong","arrowright",0,1368,414
"sub-110","qh07hl","22/12/2022","10:45:07",26.7722666666667,"1366x600",0.8196,60.56,"chrome","108.0.0","Desktop","Windows 10","Vertical-Horizontal",5,5,52,"VerticalHorizontal_-7.54286_0.13460",-7.54286,"Congruent","1",0.1346,"Easy","Mild","arrowleft",0,1051,401
"sub-110","qh07hl","22/12/2022","10:45:07",26.7722666666667,"1366x600",0.8196,60.56,"chrome","108.0.0","Desktop","Windows 10","Vertical-Horizontal",5,5,53,"VerticalHorizontal_-7.54286_0.05000",-7.54286,"Congruent","1",0.05,"Easy","Mild","arrowleft",0,1458,398
"sub-110","qh07hl","22/12/2022","10:45:07",26.7722666666667,"1366x600",0.8196,60.56,"chrome","108.0.0","Desktop","Windows 10","Vertical-Horizontal",5,5,54,"VerticalHorizontal_24.51429_-0.1923",24.51429,"Incongruent","-1",0.1923,"Hard","Strong","arrowleft",1,1054,345
"sub-110","qh07hl","22/12/2022","10:45:07",26.7722666666667,"1366x600",0.8196,60.56,"chrome","108.0.0","Desktop","Windows 10","Vertical-Horizontal",5,5,55,"VerticalHorizontal_-7.54286_0.08717",-7.54286,"Congruent","1",0.08717,"Easy","Mild","arrowleft",0,1395,635
"sub-110","qh07hl","22/12/2022","10:45:07",26.7722666666667,"1366x600",0.8196,60.56,"chrome","108.0.0","Desktop","Windows 10","Vertical-Horizontal",5,5,56,"VerticalHorizontal_-24.51429_0.05000",-24.51429,"Congruent","1",0.05,"Easy","Strong","arrowleft",0,1223,402
"sub-110","qh07hl","22/12/2022","10:45:07",26.7722666666667,"1366x600",0.8196,60.56,"chrome","108.0.0","Desktop","Windows 10","Vertical-Horizontal",5,5,57,"VerticalHorizontal_24.51429_0.08717",24.51429,"Incongruent","1",0.08717,"Easy","Strong","arrowleft",0,1325,734
"sub-110","qh07hl","22/12/2022","10:45:07",26.7722666666667,"1366x600",0.8196,60.56,"chrome","108.0.0","Desktop","Windows 10","Vertical-Horizontal",5,5,58,"VerticalHorizontal_33.0000_-0.1346",33,"Incongruent","-1",0.1346,"Easy","Strong","arrowleft",1,1365,452
"sub-110","qh07hl","22/12/2022","10:45:07",26.7722666666667,"1366x600",0.8196,60.56,"chrome","108.0.0","Desktop","Windows 10","Vertical-Horizontal",5,5,59,"VerticalHorizontal_16.02857_-0.1923",16.02857,"Incongruent","-1",0.1923,"Hard","Strong","arrowright",0,1159,525
"sub-110","qh07hl","22/12/2022","10:45:07",26.7722666666667,"1366x600",0.8196,60.56,"chrome","108.0.0","Desktop","Windows 10","Vertical-Horizontal",5,5,60,"VerticalHorizontal_16.02857_0.08717",16.02857,"Incongruent","1",0.08717,"Easy","Strong","arrowright",1,1461,626
"sub-110","qh07hl","22/12/2022","10:45:07",26.7722666666667,"1366x600",0.8196,60.56,"chrome","108.0.0","Desktop","Windows 10","Vertical-Horizontal",5,5,61,"VerticalHorizontal_16.02857_-0.1346",16.02857,"Incongruent","-1",0.1346,"Easy","Strong","arrowright",0,1022,645
"sub-110","qh07hl","22/12/2022","10:45:07",26.7722666666667,"1366x600",0.8196,60.56,"chrome","108.0.0","Desktop","Windows 10","Vertical-Horizontal",5,5,62,"VerticalHorizontal_7.54286_0.19230",7.54286,"Incongruent","1",0.1923,"Hard","Mild","arrowright",1,1036,545
"sub-110","qh07hl","22/12/2022","10:45:07",26.7722666666667,"1366x600",0.8196,60.56,"chrome","108.0.0","Desktop","Windows 10","Vertical-Horizontal",5,5,63,"VerticalHorizontal_7.54286_0.08717",7.54286,"Incongruent","1",0.08717,"Easy","Mild","arrowleft",0,1232,547
"sub-110","qh07hl","22/12/2022","10:45:07",26.7722666666667,"1366x600",0.8196,60.56,"chrome","108.0.0","Desktop","Windows 10","Vertical-Horizontal",5,5,64,"VerticalHorizontal_-7.54286_-0.1923",-7.54286,"Congruent","-1",0.1923,"Hard","Mild","arrowright",0,1294,407
"sub-110","qh07hl","22/12/2022","10:45:07",26.7722666666667,"1366x600",0.8196,60.56,"chrome","108.0.0","Desktop","Windows 10","Ebbinghaus",6,6,1,"Ebbinghaus_0.48571_-0.13357",0.48571,"Incongruent","-1",0.13357,"Easy","Mild","arrowright",0,1423,385
"sub-110","qh07hl","22/12/2022","10:45:07",26.7722666666667,"1366x600",0.8196,60.56,"chrome","108.0.0","Desktop","Windows 10","Ebbinghaus",6,6,2,"Ebbinghaus_1.00000_-0.0900",1,"Incongruent","-1",0.09,"Easy","Mild","arrowright",0,1101,419
"sub-110","qh07hl","22/12/2022","10:45:07",26.7722666666667,"1366x600",0.8196,60.56,"chrome","108.0.0","Desktop","Windows 10","Ebbinghaus",6,6,3,"Ebbinghaus_-1.0000_-0.18571",-1,"Congruent","-1",0.18571,"Hard","Mild","arrowright",0,1318,384
"sub-110","qh07hl","22/12/2022","10:45:07",26.7722666666667,"1366x600",0.8196,60.56,"chrome","108.0.0","Desktop","Windows 10","Ebbinghaus",6,6,4,"Ebbinghaus_-0.74286_0.09000",-0.74286,"Congruent","1",0.09,"Easy","Mild","arrowright",1,1350,354
"sub-110","qh07hl","22/12/2022","10:45:07",26.7722666666667,"1366x600",0.8196,60.56,"chrome","108.0.0","Desktop","Windows 10","Ebbinghaus",6,6,5,"Ebbinghaus_0.48571_-0.24643",0.48571,"Incongruent","-1",0.24643,"Hard","Mild","arrowright",0,1298,464
"sub-110","qh07hl","22/12/2022","10:45:07",26.7722666666667,"1366x600",0.8196,60.56,"chrome","108.0.0","Desktop","Windows 10","Ebbinghaus",6,6,6,"Ebbinghaus_-0.22857_0.09000",-0.22857,"Congruent","1",0.09,"Easy","Mild","arrowright",1,1258,556
"sub-110","qh07hl","22/12/2022","10:45:07",26.7722666666667,"1366x600",0.8196,60.56,"chrome","108.0.0","Desktop","Windows 10","Ebbinghaus",6,6,7,"Ebbinghaus_0.22857_0.09000",0.22857,"Incongruent","1",0.09,"Easy","Mild","arrowleft",0,1186,706
"sub-110","qh07hl","22/12/2022","10:45:07",26.7722666666667,"1366x600",0.8196,60.56,"chrome","108.0.0","Desktop","Windows 10","Ebbinghaus",6,6,8,"Ebbinghaus_0.48571_0.24643",0.48571,"Incongruent","1",0.24643,"Hard","Mild","arrowleft",0,1472,437
"sub-110","qh07hl","22/12/2022","10:45:07",26.7722666666667,"1366x600",0.8196,60.56,"chrome","108.0.0","Desktop","Windows 10","Ebbinghaus",6,6,9,"Ebbinghaus_-0.22857_-0.24643",-0.22857,"Congruent","-1",0.24643,"Hard","Mild","arrowright",0,1235,446
"sub-110","qh07hl","22/12/2022","10:45:07",26.7722666666667,"1366x600",0.8196,60.56,"chrome","108.0.0","Desktop","Windows 10","Ebbinghaus",6,6,10,"Ebbinghaus_-0.74286_-0.24643",-0.74286,"Congruent","-1",0.24643,"Hard","Mild","arrowright",0,1399,406
"sub-110","qh07hl","22/12/2022","10:45:07",26.7722666666667,"1366x600",0.8196,60.56,"chrome","108.0.0","Desktop","Windows 10","Ebbinghaus",6,6,11,"Ebbinghaus_0.48571_0.18571",0.48571,"Incongruent","1",0.18571,"Hard","Mild","arrowleft",0,1040,458
"sub-110","qh07hl","22/12/2022","10:45:07",26.7722666666667,"1366x600",0.8196,60.56,"chrome","108.0.0","Desktop","Windows 10","Ebbinghaus",6,6,12,"Ebbinghaus_0.22857_0.13357",0.22857,"Incongruent","1",0.13357,"Easy","Mild","arrowleft",0,1300,411
"sub-110","qh07hl","22/12/2022","10:45:07",26.7722666666667,"1366x600",0.8196,60.56,"chrome","108.0.0","Desktop","Windows 10","Ebbinghaus",6,6,13,"Ebbinghaus_-1.0000_0.09000",-1,"Congruent","1",0.09,"Easy","Mild","arrowright",1,1075,473
"sub-110","qh07hl","22/12/2022","10:45:07",26.7722666666667,"1366x600",0.8196,60.56,"chrome","108.0.0","Desktop","Windows 10","Ebbinghaus",6,6,14,"Ebbinghaus_0.22857_-0.13357",0.22857,"Incongruent","-1",0.13357,"Easy","Mild","arrowright",0,1274,482
"sub-110","qh07hl","22/12/2022","10:45:07",26.7722666666667,"1366x600",0.8196,60.56,"chrome","108.0.0","Desktop","Windows 10","Ebbinghaus",6,6,15,"Ebbinghaus_0.48571_0.13357",0.48571,"Incongruent","1",0.13357,"Easy","Mild","arrowleft",0,1327,571
"sub-110","qh07hl","22/12/2022","10:45:07",26.7722666666667,"1366x600",0.8196,60.56,"chrome","108.0.0","Desktop","Windows 10","Ebbinghaus",6,6,16,"Ebbinghaus_0.22857_0.24643",0.22857,"Incongruent","1",0.24643,"Hard","Mild","arrowleft",0,1061,434
"sub-110","qh07hl","22/12/2022","10:45:07",26.7722666666667,"1366x600",0.8196,60.56,"chrome","108.0.0","Desktop","Windows 10","Ebbinghaus",6,6,17,"Ebbinghaus_1.00000_0.24643",1,"Incongruent","1",0.24643,"Hard","Mild","arrowleft",0,1418,468
"sub-110","qh07hl","22/12/2022","10:45:07",26.7722666666667,"1366x600",0.8196,60.56,"chrome","108.0.0","Desktop","Windows 10","Ebbinghaus",6,6,18,"Ebbinghaus_-0.48571_-0.0900",-0.48571,"Congruent","-1",0.09,"Easy","Mild","arrowright",0,1002,481
"sub-110","qh07hl","22/12/2022","10:45:07",26.7722666666667,"1366x600",0.8196,60.56,"chrome","108.0.0","Desktop","Windows 10","Ebbinghaus",6,6,19,"Ebbinghaus_0.74286_-0.18571",0.74286,"Incongruent","-1",0.18571,"Hard","Mild","arrowright",0,1170,405
"sub-110","qh07hl","22/12/2022","10:45:07",26.7722666666667,"1366x600",0.8196,60.56,"chrome","108.0.0","Desktop","Windows 10","Ebbinghaus",6,6,20,"Ebbinghaus_0.74286_0.18571",0.74286,"Incongruent","1",0.18571,"Hard","Mild","arrowleft",0,1321,386
"sub-110","qh07hl","22/12/2022","10:45:07",26.7722666666667,"1366x600",0.8196,60.56,"chrome","108.0.0","Desktop","Windows 10","Ebbinghaus",6,6,21,"Ebbinghaus_-0.22857_0.24643",-0.22857,"Congruent","1",0.24643,"Hard","Mild","arrowleft",0,1359,358
"sub-110","qh07hl","22/12/2022","10:45:07",26.7722666666667,"1366x600",0.8196,60.56,"chrome","108.0.0","Desktop","Windows 10","Ebbinghaus",6,6,22,"Ebbinghaus_0.22857_0.18571",0.22857,"Incongruent","1",0.18571,"Hard","Mild","arrowleft",0,1482,419
"sub-110","qh07hl","22/12/2022","10:45:07",26.7722666666667,"1366x600",0.8196,60.56,"chrome","108.0.0","Desktop","Windows 10","Ebbinghaus",6,6,23,"Ebbinghaus_1.00000_0.18571",1,"Incongruent","1",0.18571,"Hard","Mild","arrowleft",0,1474,393
"sub-110","qh07hl","22/12/2022","10:45:07",26.7722666666667,"1366x600",0.8196,60.56,"chrome","108.0.0","Desktop","Windows 10","Ebbinghaus",6,6,24,"Ebbinghaus_-0.22857_-0.0900",-0.22857,"Congruent","-1",0.09,"Easy","Mild","arrowright",0,1064,442
"sub-110","qh07hl","22/12/2022","10:45:07",26.7722666666667,"1366x600",0.8196,60.56,"chrome","108.0.0","Desktop","Windows 10","Ebbinghaus",6,6,25,"Ebbinghaus_-1.0000_0.24643",-1,"Congruent","1",0.24643,"Hard","Mild","arrowleft",0,1471,423
"sub-110","qh07hl","22/12/2022","10:45:07",26.7722666666667,"1366x600",0.8196,60.56,"chrome","108.0.0","Desktop","Windows 10","Ebbinghaus",6,6,26,"Ebbinghaus_0.48571_-0.0900",0.48571,"Incongruent","-1",0.09,"Easy","Mild","arrowright",0,1318,429
"sub-110","qh07hl","22/12/2022","10:45:07",26.7722666666667,"1366x600",0.8196,60.56,"chrome","108.0.0","Desktop","Windows 10","Ebbinghaus",6,6,27,"Ebbinghaus_-0.74286_-0.18571",-0.74286,"Congruent","-1",0.18571,"Hard","Mild","arrowright",0,1031,398
"sub-110","qh07hl","22/12/2022","10:45:07",26.7722666666667,"1366x600",0.8196,60.56,"chrome","108.0.0","Desktop","Windows 10","Ebbinghaus",6,6,28,"Ebbinghaus_0.22857_-0.18571",0.22857,"Incongruent","-1",0.18571,"Hard","Mild","arrowright",0,1469,361
"sub-110","qh07hl","22/12/2022","10:45:07",26.7722666666667,"1366x600",0.8196,60.56,"chrome","108.0.0","Desktop","Windows 10","Ebbinghaus",6,6,29,"Ebbinghaus_-0.74286_0.18571",-0.74286,"Congruent","1",0.18571,"Hard","Mild","arrowleft",0,1190,559
"sub-110","qh07hl","22/12/2022","10:45:07",26.7722666666667,"1366x600",0.8196,60.56,"chrome","108.0.0","Desktop","Windows 10","Ebbinghaus",6,6,30,"Ebbinghaus_-0.22857_0.18571",-0.22857,"Congruent","1",0.18571,"Hard","Mild","arrowleft",0,1239,481
"sub-110","qh07hl","22/12/2022","10:45:07",26.7722666666667,"1366x600",0.8196,60.56,"chrome","108.0.0","Desktop","Windows 10","Ebbinghaus",6,6,31,"Ebbinghaus_-0.22857_0.13357",-0.22857,"Congruent","1",0.13357,"Easy","Mild","arrowleft",0,1010,374
"sub-110","qh07hl","22/12/2022","10:45:07",26.7722666666667,"1366x600",0.8196,60.56,"chrome","108.0.0","Desktop","Windows 10","Ebbinghaus",6,6,32,"Ebbinghaus_1.00000_0.09000",1,"Incongruent","1",0.09,"Easy","Mild","arrowleft",0,1366,364
"sub-110","qh07hl","22/12/2022","10:45:07",26.7722666666667,"1366x600",0.8196,60.56,"chrome","108.0.0","Desktop","Windows 10","Ebbinghaus",6,6,33,"Ebbinghaus_-0.74286_0.13357",-0.74286,"Congruent","1",0.13357,"Easy","Mild","arrowleft",0,1234,410
"sub-110","qh07hl","22/12/2022","10:45:07",26.7722666666667,"1366x600",0.8196,60.56,"chrome","108.0.0","Desktop","Windows 10","Ebbinghaus",6,6,34,"Ebbinghaus_0.74286_-0.13357",0.74286,"Incongruent","-1",0.13357,"Easy","Mild","arrowright",0,1461,385
"sub-110","qh07hl","22/12/2022","10:45:07",26.7722666666667,"1366x600",0.8196,60.56,"chrome","108.0.0","Desktop","Windows 10","Ebbinghaus",6,6,35,"Ebbinghaus_-0.48571_0.18571",-0.48571,"Congruent","1",0.18571,"Hard","Mild","arrowleft",0,1297,340
"sub-110","qh07hl","22/12/2022","10:45:07",26.7722666666667,"1366x600",0.8196,60.56,"chrome","108.0.0","Desktop","Windows 10","Ebbinghaus",6,6,36,"Ebbinghaus_-0.48571_-0.24643",-0.48571,"Congruent","-1",0.24643,"Hard","Mild","arrowright",0,1172,410
"sub-110","qh07hl","22/12/2022","10:45:07",26.7722666666667,"1366x600",0.8196,60.56,"chrome","108.0.0","Desktop","Windows 10","Ebbinghaus",6,6,37,"Ebbinghaus_0.48571_0.09000",0.48571,"Incongruent","1",0.09,"Easy","Mild","arrowleft",0,1106,433
"sub-110","qh07hl","22/12/2022","10:45:07",26.7722666666667,"1366x600",0.8196,60.56,"chrome","108.0.0","Desktop","Windows 10","Ebbinghaus",6,6,38,"Ebbinghaus_0.74286_0.09000",0.74286,"Incongruent","1",0.09,"Easy","Mild","arrowright",1,1017,552
"sub-110","qh07hl","22/12/2022","10:45:07",26.7722666666667,"1366x600",0.8196,60.56,"chrome","108.0.0","Desktop","Windows 10","Ebbinghaus",6,6,39,"Ebbinghaus_-0.22857_-0.13357",-0.22857,"Congruent","-1",0.13357,"Easy","Mild","arrowright",0,1464,419
"sub-110","qh07hl","22/12/2022","10:45:07",26.7722666666667,"1366x600",0.8196,60.56,"chrome","108.0.0","Desktop","Windows 10","Ebbinghaus",6,6,40,"Ebbinghaus_1.00000_0.13357",1,"Incongruent","1",0.13357,"Easy","Mild","arrowright",1,1401,398
"sub-110","qh07hl","22/12/2022","10:45:07",26.7722666666667,"1366x600",0.8196,60.56,"chrome","108.0.0","Desktop","Windows 10","Ebbinghaus",6,6,41,"Ebbinghaus_-0.22857_-0.18571",-0.22857,"Congruent","-1",0.18571,"Hard","Mild","arrowright",0,1296,418
"sub-110","qh07hl","22/12/2022","10:45:07",26.7722666666667,"1366x600",0.8196,60.56,"chrome","108.0.0","Desktop","Windows 10","Ebbinghaus",6,6,42,"Ebbinghaus_0.48571_-0.18571",0.48571,"Incongruent","-1",0.18571,"Hard","Mild","arrowright",0,1460,405
"sub-110","qh07hl","22/12/2022","10:45:07",26.7722666666667,"1366x600",0.8196,60.56,"chrome","108.0.0","Desktop","Windows 10","Ebbinghaus",6,6,43,"Ebbinghaus_-1.0000_0.18571",-1,"Congruent","1",0.18571,"Hard","Mild","arrowleft",0,1086,512
"sub-110","qh07hl","22/12/2022","10:45:07",26.7722666666667,"1366x600",0.8196,60.56,"chrome","108.0.0","Desktop","Windows 10","Ebbinghaus",6,6,44,"Ebbinghaus_0.74286_-0.24643",0.74286,"Incongruent","-1",0.24643,"Hard","Mild","arrowleft",1,1107,349
"sub-110","qh07hl","22/12/2022","10:45:07",26.7722666666667,"1366x600",0.8196,60.56,"chrome","108.0.0","Desktop","Windows 10","Ebbinghaus",6,6,45,"Ebbinghaus_-0.48571_0.13357",-0.48571,"Congruent","1",0.13357,"Easy","Mild","arrowleft",0,1151,431
"sub-110","qh07hl","22/12/2022","10:45:07",26.7722666666667,"1366x600",0.8196,60.56,"chrome","108.0.0","Desktop","Windows 10","Ebbinghaus",6,6,46,"Ebbinghaus_-1.0000_0.13357",-1,"Congruent","1",0.13357,"Easy","Mild","arrowleft",0,1413,402
"sub-110","qh07hl","22/12/2022","10:45:07",26.7722666666667,"1366x600",0.8196,60.56,"chrome","108.0.0","Desktop","Windows 10","Ebbinghaus",6,6,47,"Ebbinghaus_-1.0000_-0.24643",-1,"Congruent","-1",0.24643,"Hard","Mild","arrowright",0,1231,408
"sub-110","qh07hl","22/12/2022","10:45:07",26.7722666666667,"1366x600",0.8196,60.56,"chrome","108.0.0","Desktop","Windows 10","Ebbinghaus",6,6,48,"Ebbinghaus_-1.0000_-0.0900",-1,"Congruent","-1",0.09,"Easy","Mild","arrowright",0,1277,382
"sub-110","qh07hl","22/12/2022","10:45:07",26.7722666666667,"1366x600",0.8196,60.56,"chrome","108.0.0","Desktop","Windows 10","Ebbinghaus",6,6,49,"Ebbinghaus_-0.48571_0.09000",-0.48571,"Congruent","1",0.09,"Easy","Mild","arrowleft",0,1310,426
"sub-110","qh07hl","22/12/2022","10:45:07",26.7722666666667,"1366x600",0.8196,60.56,"chrome","108.0.0","Desktop","Windows 10","Ebbinghaus",6,6,50,"Ebbinghaus_0.22857_-0.24643",0.22857,"Incongruent","-1",0.24643,"Hard","Mild","arrowright",0,1064,537
"sub-110","qh07hl","22/12/2022","10:45:07",26.7722666666667,"1366x600",0.8196,60.56,"chrome","108.0.0","Desktop","Windows 10","Ebbinghaus",6,6,51,"Ebbinghaus_0.22857_-0.0900",0.22857,"Incongruent","-1",0.09,"Easy","Mild","arrowleft",1,1330,415
"sub-110","qh07hl","22/12/2022","10:45:07",26.7722666666667,"1366x600",0.8196,60.56,"chrome","108.0.0","Desktop","Windows 10","Ebbinghaus",6,6,52,"Ebbinghaus_-0.74286_-0.0900",-0.74286,"Congruent","-1",0.09,"Easy","Mild","arrowright",0,1147,395
"sub-110","qh07hl","22/12/2022","10:45:07",26.7722666666667,"1366x600",0.8196,60.56,"chrome","108.0.0","Desktop","Windows 10","Ebbinghaus",6,6,53,"Ebbinghaus_0.74286_0.24643",0.74286,"Incongruent","1",0.24643,"Hard","Mild","arrowleft",0,1490,395
"sub-110","qh07hl","22/12/2022","10:45:07",26.7722666666667,"1366x600",0.8196,60.56,"chrome","108.0.0","Desktop","Windows 10","Ebbinghaus",6,6,54,"Ebbinghaus_0.74286_0.13357",0.74286,"Incongruent","1",0.13357,"Easy","Mild","arrowright",1,1120,442
"sub-110","qh07hl","22/12/2022","10:45:07",26.7722666666667,"1366x600",0.8196,60.56,"chrome","108.0.0","Desktop","Windows 10","Ebbinghaus",6,6,55,"Ebbinghaus_-1.0000_-0.13357",-1,"Congruent","-1",0.13357,"Easy","Mild","arrowright",0,1131,379
"sub-110","qh07hl","22/12/2022","10:45:07",26.7722666666667,"1366x600",0.8196,60.56,"chrome","108.0.0","Desktop","Windows 10","Ebbinghaus",6,6,56,"Ebbinghaus_-0.74286_0.24643",-0.74286,"Congruent","1",0.24643,"Hard","Mild","arrowleft",0,1224,477
"sub-110","qh07hl","22/12/2022","10:45:07",26.7722666666667,"1366x600",0.8196,60.56,"chrome","108.0.0","Desktop","Windows 10","Ebbinghaus",6,6,57,"Ebbinghaus_-0.74286_-0.13357",-0.74286,"Congruent","-1",0.13357,"Easy","Mild","arrowright",0,1011,412
"sub-110","qh07hl","22/12/2022","10:45:07",26.7722666666667,"1366x600",0.8196,60.56,"chrome","108.0.0","Desktop","Windows 10","Ebbinghaus",6,6,58,"Ebbinghaus_-0.48571_-0.13357",-0.48571,"Congruent","-1",0.13357,"Easy","Mild","arrowright",0,1036,381
"sub-110","qh07hl","22/12/2022","10:45:07",26.7722666666667,"1366x600",0.8196,60.56,"chrome","108.0.0","Desktop","Windows 10","Ebbinghaus",6,6,59,"Ebbinghaus_1.00000_-0.24643",1,"Incongruent","-1",0.24643,"Hard","Mild","arrowright",0,1330,422
"sub-110","qh07hl","22/12/2022","10:45:07",26.7722666666667,"1366x600",0.8196,60.56,"chrome","108.0.0","Desktop","Windows 10","Ebbinghaus",6,6,60,"Ebbinghaus_0.74286_-0.0900",0.74286,"Incongruent","-1",0.09,"Easy","Mild","arrowleft",1,1187,397
"sub-110","qh07hl","22/12/2022","10:45:07",26.7722666666667,"1366x600",0.8196,60.56,"chrome","108.0.0","Desktop","Windows 10","Ebbinghaus",6,6,61,"Ebbinghaus_-0.48571_-0.18571",-0.48571,"Congruent","-1",0.18571,"Hard","Mild","arrowright",0,1378,381
"sub-110","qh07hl","22/12/2022","10:45:07",26.7722666666667,"1366x600",0.8196,60.56,"chrome","108.0.0","Desktop","Windows 10","Ebbinghaus",6,6,62,"Ebbinghaus_-0.48571_0.24643",-0.48571,"Congruent","1",0.24643,"Hard","Mild","arrowleft",0,1220,404
"sub-110","qh07hl","22/12/2022","10:45:07",26.7722666666667,"1366x600",0.8196,60.56,"chrome","108.0.0","Desktop","Windows 10","Ebbinghaus",6,6,63,"Ebbinghaus_1.00000_-0.18571",1,"Incongruent","-1",0.18571,"Hard","Mild","arrowright",0,1002,448
"sub-110","qh07hl","22/12/2022","10:45:07",26.7722666666667,"1366x600",0.8196,60.56,"chrome","108.0.0","Desktop","Windows 10","Ebbinghaus",6,6,64,"Ebbinghaus_1.00000_-0.13357",1,"Incongruent","-1",0.13357,"Easy","Mild","arrowleft",1,1231,559
"sub-111","ld8429","21/12/2022","14:38:51",30.0094166666667,"1366x600",0.8196,61.04,"chrome","108.0.0","Desktop","Windows 10","Ebbinghaus",1,1,19,"Ebbinghaus_0.10000_0.11071",0.1,"Incongruent","1",0.11071,"Easy","Mild","arrowleft",0,1118,492
"sub-111","ld8429","21/12/2022","14:38:51",30.0094166666667,"1366x600",0.8196,61.04,"chrome","108.0.0","Desktop","Windows 10","Ebbinghaus",1,1,20,"Ebbinghaus_-0.61429_-0.2800",-0.61429,"Congruent","-1",0.28,"Hard","Mild","arrowright",0,1399,459
"sub-111","ld8429","21/12/2022","14:38:51",30.0094166666667,"1366x600",0.8196,61.04,"chrome","108.0.0","Desktop","Windows 10","Ebbinghaus",1,1,21,"Ebbinghaus_-0.35714_-0.2150",-0.35714,"Congruent","-1",0.215,"Hard","Mild","arrowright",0,1051,477
"sub-111","ld8429","21/12/2022","14:38:51",30.0094166666667,"1366x600",0.8196,61.04,"chrome","108.0.0","Desktop","Windows 10","Ebbinghaus",1,1,22,"Ebbinghaus_0.10000_0.28000",0.1,"Incongruent","1",0.28,"Hard","Mild","arrowleft",0,1156,396
"sub-111","ld8429","21/12/2022","14:38:51",30.0094166666667,"1366x600",0.8196,61.04,"chrome","108.0.0","Desktop","Windows 10","Ebbinghaus",1,1,23,"Ebbinghaus_-0.87143_-0.2150",-0.87143,"Congruent","-1",0.215,"Hard","Mild","arrowright",0,1072,462
"sub-111","ld8429","21/12/2022","14:38:51",30.0094166666667,"1366x600",0.8196,61.04,"chrome","108.0.0","Desktop","Windows 10","Ebbinghaus",1,1,24,"Ebbinghaus_-0.1000_0.15857",-0.1,"Congruent","1",0.15857,"Easy","Mild","arrowleft",0,1452,492
"sub-111","ld8429","21/12/2022","14:38:51",30.0094166666667,"1366x600",0.8196,61.04,"chrome","108.0.0","Desktop","Windows 10","Ebbinghaus",1,1,25,"Ebbinghaus_0.35714_0.21500",0.35714,"Incongruent","1",0.215,"Hard","Mild","arrowleft",0,1416,458
"sub-111","ld8429","21/12/2022","14:38:51",30.0094166666667,"1366x600",0.8196,61.04,"chrome","108.0.0","Desktop","Windows 10","Ebbinghaus",1,1,26,"Ebbinghaus_-0.35714_0.11071",-0.35714,"Congruent","1",0.11071,"Easy","Mild","arrowright",1,1415,443
"sub-111","ld8429","21/12/2022","14:38:51",30.0094166666667,"1366x600",0.8196,61.04,"chrome","108.0.0","Desktop","Windows 10","Ebbinghaus",1,1,27,"Ebbinghaus_0.87143_-0.11071",0.87143,"Incongruent","-1",0.11071,"Easy","Mild","arrowright",0,1127,458
"sub-111","ld8429","21/12/2022","14:38:51",30.0094166666667,"1366x600",0.8196,61.04,"chrome","108.0.0","Desktop","Windows 10","Ebbinghaus",1,1,28,"Ebbinghaus_-0.87143_0.21500",-0.87143,"Congruent","1",0.215,"Hard","Mild","arrowleft",0,1076,536
"sub-111","ld8429","21/12/2022","14:38:51",30.0094166666667,"1366x600",0.8196,61.04,"chrome","108.0.0","Desktop","Windows 10","Ebbinghaus",1,1,29,"Ebbinghaus_0.61429_0.21500",0.61429,"Incongruent","1",0.215,"Hard","Mild","arrowleft",0,1108,386
